Folder: FTIR-LDIR-Raman

Note: README.md
# Multi-Instrument Microplastic Particle Matching Pipeline

Spatial alignment and material cross-validation of microplastic particles detected by **FTIR**, **Raman**, and **LDIR** microspectroscopy on the same filter sample.

## What it does

When the same filter is analysed by multiple instruments, each produces its own particle list with coordinates, sizes, and material identifications. This pipeline:

1. **Ingests** tabular data and companion images from all three instruments
2. **Extracts spatial coordinates** for LDIR via a Python-based image processing backend (scipy/numpy sigma-clipping + auto-tuned threshold)
3. **Aligns** coordinate systems using a tiered approach (Landmark → RANSAC → ICP)
4. **Matches** particles spatially across all three instrument pairs (FTIR↔Raman, LDIR↔Raman, LDIR↔FTIR)
5. **Identifies triplets** — particles detected by all three instruments simultaneously, with material-agreement quality scoring
6. **Compares** material identifications to assess inter-instrument agreement at Exact / Family / Disagree tiers
7. **Exports** matched pairs, agreement statistics, diagnostic plots, and a Shiny viewer

## Quick start

### Prerequisites

**R (≥ 4.0)** with these packages:
```r
install.packages(c("readxl", "ggplot2", "RANN", "png", "clue", "reticulate"))
```

**Python 3** with these packages (for LDIR image processing):
```bash
pip3 install numpy scipy Pillow matplotlib
```

The Python backend is invoked automatically via `reticulate`. If Python or its packages are unavailable, the pipeline falls back to an R-based saturation segmentation approach.

### Running the pipeline

**Option A — Hardcoded paths** (non-interactive):

```r
ftir_file  <- "Comparstic Spotlight F2Ba Au 240926.csv"
raman_file <- "Comparstic Raman F2Ba Au IAEA 240930.csv"
ldir_file  <- "Comparstic LDIR F2Ba Au MP2 240925.xlsx"          # optional
ftir_image <- "Average Abs.( Comparstic Spotlight F2Ba Au 240926 ).png"  # optional
ldir_image <- "LDIR_particle_map.png"                             # optional
source("main.R")
```

**Option B — Interactive file picker**:

```r
input_mode <- "interactive"
source("main.R")
```

Results are written to a timestamped subfolder under `output/` (e.g. `output/2026-02-19_1/`).

## Input data formats

| Instrument | Format | Key columns |
|------------|--------|-------------|
| **FTIR** (PerkinElmer Spotlight) | CSV (comma-separated) | `Coord. [um]` (bracketed X;Y), `Group` (material), `Max AAU score` |
| **Raman** (Horiba / WITec) | CSV (semicolon-separated) | `Visual Center Point X/Y [um]`, `Material`, `HQI`, `Feret Max [um]` |
| **LDIR** (Agilent 8700) | XLSX | `Identification` (material), `Quality`, `Width/Height [um]` — **no X/Y coordinates** |
| **FTIR image** | PNG | Chemical absorption map exported from the FTIR instrument |
| **LDIR image** | PNG | Colored particle map exported from Agilent LDIR software |

The ingest module auto-detects CSV delimiters and handles encoding differences (Latin-1, UTF-8).

## Pipel

File: Comparstic Raman F2Ba Au IAEA 240930.csv
Particle Name;Material;HQI;RamanSignal;FluorescenceSignal;Area [µm²];Aspect Ratio;CE Diameter [µm];Circularity;Convex Area [µm²];Convex Perimeter [µm];Convexity;Feret Max [µm];Feret Min [µm];Focus Z Position [µm];Length [µm];Num Pixels;Perimeter [µm];SE Volume [µm³];Solidity;Width [µm];Visual Center Point X [µm];Visual Center Point Y [µm];Visual Center Point Z [µm]
791;Polyethylene (PE);98.74;4.81192;30.2206;794.224;0.778;31.800;0.902;821.248;103.765;0.937;36.533;28.298;9.030;36.533;2410.000;110.792;16837.532;0.967;28.415;765.441;-1002.64;-13.24
303;Cellulose Acetate Butyrate (CAB)   ;94.29;2.14389;160.346;800.815;0.965;31.932;0.892;827.674;102.909;0.915;34.232;31.256;27.470;32.722;2430.000;112.416;17047.562;0.968;31.574;11747.4;535.857;-13.24
579;Polyethylene terephtalate (PET)   ;93.29;14.7241;591.128;130536.836;0.464;407.682;0.433;173647.884;1733.566;0.585;739.551;340.600;45.900;733.367;396102.000;2960.985;35478350.868;0.752;340.600;606.424;101.288;-13.24
704;Polyethylene terephtalate (PET)   ;92.90;14.488;458.218;1859.341;0.446;48.656;0.759;1952.605;179.865;0.893;75.736;33.749;27.470;75.740;5642.000;201.509;60311.828;0.952;33.749;8472.3;3616.88;-13.24
165;Cellulose Acetate Butyrate (CAB)   ;92.36;0.317963;76.574;756.161;0.914;31.029;0.866;802.298;104.540;0.929;36.199;29.722;9.030;33.296;2294.500;112.589;15641.736;0.942;30.426;10777.2;2330.97;-13.24
109;Polyacrylamide/acrylate   ;91.74;0.673689;149.017;1132.840;0.525;37.979;0.830;1182.933;133.002;0.925;53.962;28.264;-9.400;53.915;3437.500;143.833;28682.495;0.958;28.289;2492.81;-3304.65;-13.24
606;Cellulose Acetate Butyrate (CAB)   ;91.35;2.60814;140.711;558.099;0.701;26.657;0.715;628.788;94.218;0.805;34.098;24.082;18.250;34.349;1693.500;117.066;9918.150;0.888;24.082;10255.4;4611.16;-13.24
44;Cellulose Acetate Butyrate (CAB)   ;91.04;2.05633;162.604;1487.605;0.608;43.521;0.640;1730.651;158.058;0.740;60.077;36.538;18.250;60.130;4514.000;213.581;43161.368;0.860;36.538;5421.13;5390.17;-13.24
775;Cellulose Acetate Butyrate (CAB)   ;90.68;3.94257;183.432;688.932;0.717;29.617;0.854;723.535;101.098;0.928;37.483;25.263;18.250;35.210;2090.500;108.914;13602.794;0.952;25.263;3984.24;3526.75;-13.24
25;Cellulose Acetate Butyrate (CAB)   ;90.02;0.425775;91.8278;861.618;0.935;33.122;0.708;991.956;116.380;0.791;44.158;31.256;-9.400;35.971;2614.500;147.047;19025.490;0.869;33.627;1806.23;-3173.77;-13.24
511;Polyethylene terephtalate (PET)   ;89.17;5.69585;306.461;1980.782;0.687;50.220;0.852;2058.721;166.109;0.897;61.999;42.460;27.470;61.787;6010.500;185.214;66316.069;0.962;42.466;908.383;1122.55;-13.24
410;Cellulose Acetate Butyrate (CAB)   ;88.32;1.06292;111.7;352.458;0.719;21.184;0.829;373.219;75.764;0.943;28.754;17.623;18.250;25.979;1069.500;80.326;4977.647;0.944;18.673;4895.28;6166.89;-13.24
393;Polyamide (PA)    ;87.10;3.86291;93.8852;17641.663;0.189;149.873;0.424;22295.948;819.042;0.737;381.657;72.727;55.100;383.809;53532.000;1111.678;1762678.371;0.791;72.727;6567.54;3980.26;-13.24
541;Polyacrylamide/acrylate;86.13;0.0120409;24.7946;787.963;0.828;31.674;0.806;834.100;107.297;0.870;36.779;29.116;36.680;35.316;2391.000;123.388;16638.809;0.945;29.227;1771.78;4689.81;-13.24
762;Polyamide (PA)    ;84.30;2.13388;39.0045;1530.776;0.562;44.148;0.676;1685.667;159.550;0.777;64.325;35.778;9.030;63.635;4645.000;205.232;45053.802;0.908;35.778;5855.12;-4774.27;-13.24
127;Cellulose Acetate Butyrate (CAB)   ;82.22;1.69214;176.692;461.045;0.868;24.229;0.542;583.969;91.048;0.648;32.880;24.523;9.030;28.478;1399.000;140.528;7446.967;0.790;24.706;1302.77;-113.413;-13.24
223;Polyacrylamide/acrylate   ;80.85;3.88725;133.903;712.001;0.962;30.109;0.800;770.496;101.082;0.854;33.375;30.060;18.250;32.474;2160.500;118.296;14291.713;0.924;31.256;9019.96;3167.96;-13.24
565;Polyamide (PA)    ;78.50;1.84674;90.9766;5365.297;0.616;82.652;0.660;5846.116;284.784;0.724;110.439;68.403;27.470;111.024;16280.500;393.251;295634.068;0.918;68.403;3531.87;-2759.29;-13.24
768;Polyamide (PA)    ;75.88;3.82202;178.356;775.440;0.623;31.422;0.848;810.208;106.478;0.914;40.050;25.340;18.250;40.656;2353.000;116.451;16243.730;0.957;25.340;9467.16;2545.09;-13.24
594;Polyamide (PA)    ;71.19;6.39036;420.388;807.077;0.579;32.056;0.859;838.055;109.928;0.937;42.725;24.389;9.030;42.334;2449.000;117.287;17247.893;0.963;24.514;2174.2;-1767.88;-13.24
585;Cellulose Acetate Butyrate (CAB)   ;68.28;0;28.2643;705.409;0.600;29.969;0.864;738.035;103.083;0.945;40.656;24.111;36.680;40.185;2140.500;109.029;14093.723;0.956;24.111;3835.55;1859.08;-13.24
353;Polyamide (PA)    ;63.12;2.44117;90.5204;649.056;0.918;28.747;0.808;697.995;96.072;0.859;32.862;27.698;18.250;30.213;1969.500;111.801;12439.040;0.930;27.726;5300;4038.24;-13.24
275;Polyacrylamide/acrylate;59.46;0.115344;46.2373;403.209;0.651;22.658;0.563;550.025;94.049;0.744;35.028;22.856;-9.400;35.111;1223.500;126.414;6090.583;0.733;22.856;3503.17;-3658.85;-13.24
748;Cellulose Acetate Butyrate (CAB)   ;56.01;0.130555;78.8499;620.220;0.989;28.101;0.851;656.800;98.129;0.946;37.751;25.736;36.680;29.972;1882.000;103.740;11619.362;0.944;29.650;10062.5;4428.04;-13.24
148;Polyacrylamide/acrylate;51.46;0;27.0973;683.988;0.710;29.511;0.679;764.235;104.766;0.767;40.185;25.968;-9.400;37.172;2075.500;136.551;13456.651;0.895;26.400;9554.99;-3393.64;-13.24
460;Polyamide (PA)    ;44.94;0;7.13837;886.499;0.553;33.597;0.536;1181.944;139.711;0.710;54.771;29.507;73.540;53.962;2690.000;196.835;19855.521;0.750;29.852;3156.43;-1604.27;-13.24
598;Polyacrylamide/acrylate;37.76;0.207108;110.921;438.471;0.471;23.628;0.437;640.817;103.207;0.608;42.216;19.890;9.030;42.216;1330.500;169.813;6906.773;0.684;19.890;7228.29;-2779.38;-13.24
145;Polymethylmethacrylate (PMMA)    ;35.05;0;7.64032;1139.926;0.640;38.097;0.849;1189.029;128.173;0.909;48.796;31.198;73.540;48.779;3459.000;141.004;28952.010;0.959;31.218;10867.3;3301.14;-13.24
449;Polyvinyl Chloride (PVC);31.09;0.340979;91.3937;457.256;0.793;24.129;0.409;781.207;110.413;0.596;37.314;30.474;18.250;38.439;1387.500;185.329;7355.333;0.585;30.474;10508.5;2030.73;-13.24
658;Polyamide (PA)    ;28.38;0.122444;101.903;17029.352;0.390;147.250;0.415;25851.667;675.323;0.606;281.338;109.120;27.470;279.471;51674.000;1115.089;1671710.202;0.659;109.120;962.346;3649.03;-13.24
681;Polyacrylamide/acrylate    ;24.98;0.0373096;36.9936;487.080;0.585;24.903;0.328;1233.684;152.069;0.637;58.048;33.193;-0.180;56.924;1478.000;238.576;8086.573;0.395;33.300;4041.64;142.621;-13.24
593;Polyamide (PA)    ;22.53;5.432;551.411;2787.364;0.651;59.573;0.727;3105.713;211.203;0.820;77.970;50.340;27.470;77.359;8458.000;257.421;110701.726;0.897;50.340;5757.53;2723.63;-13.24
662;Polyphenylene sulphide (PPS)   ;19.93;7.43831;832.165;350.480;0.746;21.125;0.821;377.009;72.209;0.893;25.573;18.620;18.250;25.573;1063.500;80.835;4935.818;0.930;19.079;3282.73;186.824;-13.24
188;Polyether sulphone (PES)   ;18.30;6.66443;908.172;572.764;0.663;27.005;0.738;616.100;91.749;0.798;33.834;22.326;18.250;33.692;1738.000;114.991;10311.635;0.930;22.326;993.345;2294.8;-13.24
549;Polyether sulphone (PES)   ;16.92;14.2317;1127.32;836.077;0.578;32.627;0.710;934.944;118.577;0.821;46.982;27.094;18.250;46.853;2537.000;144.448;18185.849;0.894;27.094;1470.4;4670.87;-13.24
48;Polycarbonate (PC) ;15.83;0;12.7361;650.044;0.595;28.769;0.596;827.180;111.164;0.733;43.387;25.148;55.100;42.481;1972.500;151.673;12467.472;0.786;25.259;1655.25;-1080.72;-13.24
652;Polyacrylamide/acrylate    ;14.46;13.9206;1008.77;660.425;0.701;28.998;0.918;674.761;95.226;0.960;34.915;24.568;9.030;35.047;2004.000;99.229;12767.311;0.979;24.568;7420.61;-799.998;-13.24
612;Polyphenylene sulphide (PPS)   ;13.07;0;56.498;388.049;0.651;22.228;0.598;491.529;91.171;0.780;37.311;21.118;-0.180;33.222;1177.500;116.869;5750.350;0.789;21.615;3594.45;4599.11;-13.24
604;Polycarbonate (PC) ;12.11;0;67.9533;1865.273;0.171;48.733;0.191;6957.865;504.592;0.629;238.040;41.017;9.030;239.682;5660.000;802.211;60600.683;0.268;41.017;7045.74;3735.14;-13.24
355;Polycarbonate (PC) ;10.80;0.0146269;20.3341;738.859;0.716;30.672;0.839;781.042;106.590;0.928;41.077;26.966;55.100;39.098;2242.000;114.909;15107.976;0.946;28.002;9797.82;3022.14;-13.24
736;Polyether sulphone (PES);9.60;0.482544;182.975;336.804;0.947;20.708;0.610;431.880;81.356;0.763;30.294;20.590;27.470;25.272;1022.000;106.594;4649.746;0.780;23.933;6831.04;2585.28;-13.24
287;Polyether sulphone (PES)   ;9.09;0.269176;44.045;484.444;0.400;24.836;0.611;633.402;111.556;0.873;48.222;18.679;-9.400;47.441;1470.000;127.736;8021.007;0.765;18.956;5530.78;-2370.07;-13.24
130;Polycarbonate (PC) ;8.32;0.253029;120.384;314.229;0.559;20.002;0.743;346.361;73.170;0.865;28.553;15.884;18.250;28.500;953.500;84.558;4190.192;0.907;15.922;8390.21;-110.543;-13.24
134;Polyvinyl Chloride (PVC);7.34;0;60.9184;632.249;0.556;28.373;0.607;726.995;105.995;0.722;41.907;23.065;-9.400;41.458;1918.500;146.768;11959.020;0.870;23.065;9153.72;-1208.73;-13.24
94;Polycarbonate (PC)  ;5.71;0;27.3585;699.972;0.944;29.854;0.855;750.723;101.013;0.921;35.581;28.730;55.100;31.835;2124.000;109.644;13931.075;0.932;30.038;8615.24;5311.53;-13.24
621;Polycarbonate (PC)  ;4.64;10.2832;564.609;1376.216;0.528;41.860;0.798;1439.325;146.400;0.889;58.791;30.672;27.470;58.092;4176.000;164.721;38405.516;0.956;30.683;6348.25;226.435;-13.24
430;Polycarbonate (PC)  ;4.03;0.0105555;62.4618;656.306;0.871;28.907;0.899;677.562;93.932;0.930;33.416;26.866;36.680;30.888;1991.500;100.992;12648.043;0.969;26.908;10726.7;1212.11;-13.24
1;Polyethylene terephtalate (PET)   ;3.17;19.0047;864.592;150249.579;0.417;437.383;0.570;170805.154;1767.160;0.733;778.189;326.916;55.100;784.432;455918.500;2410.785;43811053.265;0.880;326.916;9359.81;5325.88;-13.24
65;Polyethylene terephtalate (PET)   ;1.89;0;60.5288;810.867;0.762;32.131;0.744;883.863;111.344;0.821;41.810;29.173;-9.400;38.719;2460.500;135.599;17369.524;0.917;29.498;5508.96;2446.35;-13.24
362;Polytetrafluoroethylene (PTFE)    ;1.13;0;15.49;775.440;0.769;31.422;0.852;825.697;106.988;0.923;38.563;28.719;64.320;38.289;2353.000;115.860;16243.730;0.939;29.432;10079.1;1257.46;-13.24
306;Polyethylene (PE);0.01;0;21.626;656.636;0.615;28.915;0.720;790.599;107.813;0.855;40.846;24.976;36.680;40.626;1992.500;126.136;12657.571;0.831;24.976;4142.68;-336.726;-13.24