Folder: FTIR-LDIR-Raman/output/2026-02-19_1

Note: output/2026-02-19_1/ldir_transform_params.txt
# LDIR-to-Raman Transform Parameters
scale:        1.037129
rotation_deg: 8.1797
tx:           1168.9978
ty:           -1098.1083
reflected:    TRUE
icp_converged:  TRUE
icp_final_rms:  138.9689 um

Note: README.md
# Multi-Instrument Microplastic Particle Matching Pipeline

Spatial alignment and material cross-validation of microplastic particles detected by **FTIR**, **Raman**, and **LDIR** microspectroscopy on the same filter sample.

## What it does

When the same filter is analysed by multiple instruments, each produces its own particle list with coordinates, sizes, and material identifications. This pipeline:

1. **Ingests** tabular data and companion images from all three instruments
2. **Extracts spatial coordinates** for LDIR via a Python-based image processing backend (scipy/numpy sigma-clipping + auto-tuned threshold)
3. **Aligns** coordinate systems using a tiered approach (Landmark → RANSAC → ICP)
4. **Matches** particles spatially across all three instrument pairs (FTIR↔Raman, LDIR↔Raman, LDIR↔FTIR)
5. **Identifies triplets** — particles detected by all three instruments simultaneously, with material-agreement quality scoring
6. **Compares** material identifications to assess inter-instrument agreement at Exact / Family / Disagree tiers
7. **Exports** matched pairs, agreement statistics, diagnostic plots, and a Shiny viewer

## Quick start

### Prerequisites

**R (≥ 4.0)** with these packages:
```r
install.packages(c("readxl", "ggplot2", "RANN", "png", "clue", "reticulate"))
```

**Python 3** with these packages (for LDIR image processing):
```bash
pip3 install numpy scipy Pillow matplotlib
```

The Python backend is invoked automatically via `reticulate`. If Python or its packages are unavailable, the pipeline falls back to an R-based saturation segmentation approach.

### Running the pipeline

**Option A — Hardcoded paths** (non-interactive):

```r
ftir_file  <- "Comparstic Spotlight F2Ba Au 240926.csv"
raman_file <- "Comparstic Raman F2Ba Au IAEA 240930.csv"
ldir_file  <- "Comparstic LDIR F2Ba Au MP2 240925.xlsx"          # optional
ftir_image <- "Average Abs.( Comparstic Spotlight F2Ba Au 240926 ).png"  # optional
ldir_image <- "LDIR_particle_map.png"                             # optional
source("main.R")
```

**Option B — Interactive file picker**:

```r
input_mode <- "interactive"
source("main.R")
```

Results are written to a timestamped subfolder under `output/` (e.g. `output/2026-02-19_1/`).

## Input data formats

| Instrument | Format | Key columns |
|------------|--------|-------------|
| **FTIR** (PerkinElmer Spotlight) | CSV (comma-separated) | `Coord. [um]` (bracketed X;Y), `Group` (material), `Max AAU score` |
| **Raman** (Horiba / WITec) | CSV (semicolon-separated) | `Visual Center Point X/Y [um]`, `Material`, `HQI`, `Feret Max [um]` |
| **LDIR** (Agilent 8700) | XLSX | `Identification` (material), `Quality`, `Width/Height [um]` — **no X/Y coordinates** |
| **FTIR image** | PNG | Chemical absorption map exported from the FTIR instrument |
| **LDIR image** | PNG | Colored particle map exported from Agilent LDIR software |

The ingest module auto-detects CSV delimiters and handles encoding differences (Latin-1, UTF-8).

## Pipel

File: ldir_raman_matched.csv
"match_id","ldir_idx","raman_idx","match_distance","match_score","ldir_particle_id","ldir_x_um","ldir_y_um","ldir_area_um2","ldir_major_um","ldir_minor_um","ldir_feret_min_um","ldir_feret_max_um","ldir_material","ldir_quality","ldir_source_file","ldir_diameter_um","ldir_aspect_ratio","ldir_coord_match_cost","ldir_coord_source","ldir_x_norm","ldir_y_norm","ldir_x_aligned","ldir_y_aligned","raman_particle_id","raman_x_um","raman_y_um","raman_area_um2","raman_major_um","raman_minor_um","raman_feret_min_um","raman_feret_max_um","raman_material","raman_quality","raman_source_file","raman_x_norm","raman_y_norm","n_ref_candidates","next_best_distance","ambiguity_score","ambiguity_flag"
1,2,732,37.3,39.8103,"A2",6745.2,3451.28,127225,648,282,282,648,"Polyethylene terephthalate",0.844333,"Comparstic LDIR F2Ba Au MP2 240925.xlsx",402.477,2.29918,0.383745,"image",-278.182,-3397.18,382.131,2348.31,"521",5731.7,4711.05,497.296,39.648,19.159,19.159,39.793,"Polytetrafluoroethylene (PTFE)",4.21,"Comparstic Raman F2Ba Au IAEA 240930.csv",374.618,2384.85,1,131.585,0.283468,FALSE
2,3,196,35.1912,37.5184,"A3",2056.41,7141.73,122862.5,427,367,367,427,"Polyethylene terephthalate",0.812781,"Comparstic LDIR F2Ba Au MP2 240925.xlsx",395.517,0.859259,0.581523,"image",-4966.97,293.279,-3886.71,-2132.11,"656",1505.41,190.843,641.97,36.514,22.086,22.086,38.567,"Cellulose Acetate Butyrate (CAB)",86.94,"Comparstic Raman F2Ba Au IAEA 240930.csv",-3851.67,-2135.36,1,163.364,0.215416,FALSE
3,6,191,68.9533,70.8137,"A6",11605.1,9073.5,46587.5,308,219,219,308,"Polyethylene terephthalate",0.85533,"Comparstic LDIR F2Ba Au MP2 240925.xlsx",243.551,1.40574,0.189218,"image",4581.7,2225.04,6200.8,-2706.21,"398",11506.2,-425.706,727.654,37.693,28.131,28.129,40.593,"Cellulose Acetate Butyrate (CAB)",87.18,"Comparstic Raman F2Ba Au IAEA 240930.csv",6149.16,-2751.91,0,153.246,0.449951,FALSE
4,7,680,63.8082,66.0584,"A7",9750.59,6113.26,43325,362,175,175,362,"Polyethylene terephthalate",0.784743,"Comparstic LDIR F2Ba Au MP2 240925.xlsx",234.868,2.06825,0.164373,"image",2727.21,-735.189,3860.21,59.0503,"140",9153.72,2379.76,405.021,23.363,22.336,22.022,25.234,"Polycarbonate (PC)",7.8,"Comparstic Raman F2Ba Au IAEA 240930.csv",3796.64,53.5579,0,245.162,0.260269,FALSE
5,17,248,44.6217,45.3084,"A17",9774.82,5362.27,16550,447,135,135,447,"Polyethylene terephthalate",0.88498,"Comparstic LDIR F2Ba Au MP2 240925.xlsx",145.162,0.302043,0.195509,"image",2751.44,-1486.19,3774.26,833.584,"185",9089.99,3176.57,5918.782,138.258,56.566,56.566,138.247,"Polyamide (PA)",81.69,"Comparstic Raman F2Ba Au IAEA 240930.csv",3732.91,850.364,1,111.682,0.399542,FALSE
6,22,462,77.3524,78.4506,"A22",4248.63,5518.83,9250,143,106,106,143,"Polyethylene terephthalate",0.855235,"Comparstic LDIR F2Ba Au MP2 240925.xlsx",108.524,1.35476,0.0441763,"image",-2774.75,-1329.62,-1875.7,-142.592,"215",3479.06,2260.93,862.442,38.014,29.857,29.857,40.185,"Polyacrylamide/acrylate",28.84,"Comparstic Raman F2Ba Au IAEA 240930.csv",-1878.02,-65.2741,0,355.646,0.217498,FALSE
7,24,644,83.0903,84.5395,"A24",8170.08,10789.7,9050,145,100,100,145,"Polyamide (naturally occurring)",0.781206,"Comparstic LDIR F2Ba Au MP2 240925.xlsx",107.344,0.689655,0.0228124,"image",1146.71,3941.21,2927.75,-4974.86,"546",8362.65,-2677.77,387.555,27.271,19.652,19.652,27.412,"Polyethylene (PE)",9.42,"Comparstic Raman F2Ba Au IAEA 240930.csv",3005.57,-5003.98,0,262.161,0.316944,FALSE
8,26,5,69.2241,69.8458,"A26",2176.3,7029.5,8087.5,175,72,72,175,"Polyethylene terephthalate",0.921203,"Comparstic LDIR F2Ba Au MP2 240925.xlsx",101.476,0.412422,0.0412035,"image",-4847.08,181.046,-3780.19,-1999.21,"454",1536.41,383.155,1996.93,105.231,29.38,29.38,99.314,"Polypropylene (PP)",96.54,"Comparstic Raman F2Ba Au IAEA 240930.csv",-3820.67,-1943.05,0,153.776,0.450162,FALSE
9,28,591,91.7756,92.364,"A28",4874.51,5374.87,6925,107,89,89,107,"Polyethylene terephthalate",0.866496,"Comparstic LDIR F2Ba Au MP2 240925.xlsx",93.8999,0.830846,0.301483,"image",-2148.86,-1473.58,-1254.42,97.5512,"782",4083.55,2513.52,1802.329,62.841,37.07,37.07,63.722,"Polyphenylene sulphide (PPS)",13.23,"Comparstic Raman F2Ba Au IAEA 240930.csv",-1273.53,187.316,0,93.5296,0.981247,TRUE
10,33,363,26.5146,27.4979,"A33",10135.9,4853,6375,416,57,57,416,"Cellulosic",0.833986,"Comparstic LDIR F2Ba Au MP2 240925.xlsx",90.0939,7.29736,0.395827,"image",3112.49,-1995.45,4069.76,1409.66,"570",9414.34,3759.25,2044.386,62.249,47.296,47.296,64.296,"Polyamide (PA)",57.42,"Comparstic Raman F2Ba Au IAEA 240930.csv",4057.26,1433.04,1,78.217,0.338988,FALSE
11,38,118,19.063,19.9751,"A38",9433.9,2799.55,4550,110,57,57,110,"Polyethylene terephthalate",0.918361,"Comparstic LDIR F2Ba Au MP2 240925.xlsx",76.1133,0.516129,0.606497,"image",2410.52,-4048.9,3046.13,3414.1,"637",8384.47,5743.8,691.898,35.764,27.184,25.833,38.463,"Cellulose Acetate Butyrate (CAB)",90.96,"Comparstic Raman F2Ba Au IAEA 240930.csv",3027.38,3417.59,1,102.276,0.186388,FALSE
12,40,525,73.9069,74.9557,"A40",9842.65,9987.73,4150,104,59,59,104,"Polyamide (naturally occurring)",0.93986,"Comparstic LDIR F2Ba Au MP2 240925.xlsx",72.6907,0.566038,0.814972,"image",2819.27,3139.28,4526.43,-3904.81,"359",9889.67,-1504.95,341.418,41.119,19.29,19.29,40.593,"Polyphenylene sulphide (PPS)",18.69,"Comparstic Raman F2Ba Au IAEA 240930.csv",4532.59,-3831.16,0,166.121,0.444898,FALSE
13,46,474,69.641,69.905,"A46",9642.92,5608.05,3475,167,43,43,167,"Cellulosic",0.894829,"Comparstic LDIR F2Ba Au MP2 240925.xlsx",66.517,0.254237,0.653299,"image",2619.54,-1240.4,3675.13,561.802,"448",8963.13,2879.2,2879.145,95.239,40.25,40.25,95.212,"Polyamide (PA)",26.37,"Comparstic Raman F2Ba Au IAEA 240930.csv",3606.04,552.997,0,156.229,0.445763,FALSE
14,47,78,49.6785,50.6002,"A47",9550.125,8509.01,3362.5,190,32,32,190,"Cellulosic",0.822389,"Comparstic LDIR F2Ba Au MP2 240925.xlsx",65.4314,5.9869,0.558208,"image",2526.75,1660.56,4007.94,-2429.96,"55",9341.44,-60.025,802.793,41.299,30.251,25.962,47.648,"Polyethylene terephtalate (PET)",91.85,"Comparstic Raman F2Ba Au IAEA 240930.csv",3984.36,-2386.23,1,250.221,0.198538,FALSE
15,60,120,59.5587,59.7095,"A60",10422,3942.69,2612.5,85,49,49,85,"Polyethylene terephthalate",0.918983,"Comparstic LDIR F2Ba Au MP2 240925.xlsx",57.6744,1.72881,1.29372,"image",3398.63,-2905.76,4229.18,2386.39,"552",9584.27,4653.07,3575.492,77.04,61.54,61.54,77.221,"Polyethylene terephtalate (PET)",90.88,"Comparstic Raman F2Ba Au IAEA 240930.csv",4227.19,2326.87,0,251.519,0.236796,FALSE
16,63,377,6.87374,7.58203,"A63",2765.95,10595.9,2462.5,73,54,54,73,"Carbonate",0.860504,"Comparstic LDIR F2Ba Au MP2 240925.xlsx",55.9942,0.735849,1.22608,"image",-4257.43,3747.49,-2648.6,-5573.43,"71",2702.92,-3251.27,468.296,42.231,16.856,16.856,42.216,"Polycarbonate (PC)",53.53,"Comparstic Raman F2Ba Au IAEA 240930.csv",-2654.16,-5577.47,1,223.186,0.0307983,FALSE
17,74,771,30.5858,30.671,"A74",5094.28,5185.25,1975,79,34,34,79,"Polyethylene terephthalate",0.892499,"Comparstic LDIR F2Ba Au MP2 240925.xlsx",50.1463,0.435644,1.4922,"image",-1929.1,-1663.2,-1056.8,324.637,"644",4328.68,2662.2,1772.834,66.434,46.164,45.955,75.203,"Polycarbonate (PC)",1.86,"Comparstic Raman F2Ba Au IAEA 240930.csv",-1028.4,335.999,1,52.3692,0.584041,FALSE
18,83,280,52.8471,53.3478,"A83",11889.2,8158.07,1750,50,40,40,50,"Polyethylene terephthalate",0.941419,"Comparstic LDIR F2Ba Au MP2 240925.xlsx",47.2035,0.8,1.59558,"image",4865.86,1309.62,6357.43,-1724.52,"225",11765.1,616.801,579.52,27.698,27.366,25.887,30.317,"Polyacrylamide/acrylate",77.16,"Comparstic Raman F2Ba Au IAEA 240930.csv",6408.07,-1709.4,0,73.5641,0.718382,TRUE
19,85,726,98.348,98.9309,"A85",5028.71,8908.96,1700,60,39,39,60,"Polycarbonate",0.887871,"Comparstic LDIR F2Ba Au MP2 240925.xlsx",46.5243,1.54545,1.65906,"image",-1994.67,2060.51,-574.637,-3507.71,"180",4831.56,-1266.72,438.801,32.037,24.266,24.111,34.915,"Polyethylene naphtalate (PEN)",4.42,"Comparstic Raman F2Ba Au IAEA 240930.csv",-525.52,-3592.92,0,358.49,0.27434,FALSE
20,87,124,95.5288,95.9012,"A87",10452.2,6533.3,1625,55,40,40,55,"Polyamide (naturally occurring)",0.925916,"Comparstic LDIR F2Ba Au MP2 240925.xlsx",45.4864,1.4,0.611713,"image",3428.84,-315.151,4642.47,-268.617,"417",9904.02,2057.14,733.751,32.132,30.135,26.463,37.929,"Polyacrylamide/acrylate",90.78,"Comparstic Raman F2Ba Au IAEA 240930.csv",4546.94,-269.068,0,173.16,0.55168,FALSE
21,91,639,55.702,56.356,"A91",1377.04,8788.82,1475,68,36,36,68,"Polycarbonate",0.869741,"Comparstic LDIR F2Ba Au MP2 240925.xlsx",43.3362,0.523365,1.38322,"image",-5646.34,1940.37,-4341.09,-3923.23,"489",1056.49,-1635.27,328.4,37.86,13.476,13.476,38.51,"Polycarbonate (PC)",9.72,"Comparstic Raman F2Ba Au IAEA 240930.csv",-4300.59,-3961.47,0,108.433,0.513699,FALSE
22,102,177,58.3072,58.9725,"A103",6196.27,1933.09,1375,65,41,41,65,"Polyamide (naturally occurring)",0.805444,"Comparstic LDIR F2Ba Au MP2 240925.xlsx",41.8414,0.627907,0.884765,"image",-827.108,-4915.36,-405.41,3825.85,"410",4895.28,6166.89,352.458,25.979,18.673,17.623,28.754,"Cellulose Acetate Butyrate (CAB)",88.32,"Comparstic Raman F2Ba Au IAEA 240930.csv",-461.798,3840.68,0,156.801,0.371855,FALSE
23,105,259,84.2376,84.7434,"A106",8434.35,1890.46,1312.5,40,40,40,40,"Polyamide (naturally occurring)",0.914074,"Comparstic LDIR F2Ba Au MP2 240925.xlsx",40.8794,1,1.55812,"image",1410.97,-4957.99,1885.87,4199.86,"246",7202.46,6452.2,381.788,50.111,15.284,15.284,49.806,"Cellulose Acetate Butyrate (CAB)",80.79,"Comparstic Raman F2Ba Au IAEA 240930.csv",1845.38,4125.99,0,213.855,0.393902,FALSE
24,110,572,92.582,92.8703,"A111",4952.83,12174.6,1262.5,42,39,39,42,"Carbonate",0.874503,"Comparstic LDIR F2Ba Au MP2 240925.xlsx",40.0932,0.916667,1.61935,"image",-2070.55,5326.18,-170.648,-6871.38,"672",5162.8,-4455.66,645.101,31.574,28.703,28.703,31.662,"Polyphenylene sulphide (PPS)",15.26,"Comparstic Raman F2Ba Au IAEA 240930.csv",-194.283,-6781.86,0,157.167,0.589068,FALSE
25,114,222,69.3768,69.7479,"A117",1734.18,7464.795,1212.5,67,27,27,67,"Polycarbonate",0.714527,"Comparstic LDIR F2Ba Au MP2 240925.xlsx",39.2913,0.395349,1.37149,"image",-5289.2,616.343,-4169.83,-2511.31,"207",1242.49,-227.079,649.715,39.705,23.05,22.914,40.185,"Cellulose Acetate Butyrate (CAB)",84.73,"Comparstic Raman F2Ba Au IAEA 240930.csv",-4114.59,-2553.28,0,135.958,0.51028,FALSE
26,122,736,99.9139,100.61,"A126",5613.34,9895.38,1137.5,65,24,24,65,"Polyamide (naturally occurring)",0.951513,"Comparstic LDIR F2Ba Au MP2 240925.xlsx",38.0567,2.71429,1.4126,"image",-1410.04,3046.93,171.09,-4434.08,"124",5431.46,-2132.98,327.906,25.16,16.431,16.431,25.573,"Polyethylene naphtalate (PEN)",4.04,"Comparstic Raman F2Ba Au IAEA 240930.csv",74.3809,-4459.19,0,191.14,0.522727,FALSE
27,126,409,87.7416,88.2122,"A131",10324.3,6559.25,1125,74,23,23,74,"Polyamide (naturally occurring)",0.922772,"Comparstic LDIR F2Ba Au MP2 240925.xlsx",37.847,0.306667,1.70945,"image",3300.9,-289.198,4514.95,-314.139,"526",9887.37,1925.67,524.485,36.483,18.173,18.173,37.483,"Polyvinyl Chloride (PVC)",42.98,"Comparstic Raman F2Ba Au IAEA 240930.csv",4530.29,-400.53,0,55.2689,1.58754,TRUE
28,127,136,91.5883,93.8303,"A132",4596.3,5988.91,1112.5,50,30,30,50,"Polyamide (naturally occurring)",0.933069,"Comparstic LDIR F2Ba Au MP2 240925.xlsx",37.6361,0.6,1.83258,"image",-2427.07,-859.537,-1449.42,-573.868,"506",3980.79,1697.2,136970.052,656.575,292.589,292.589,656.253,"Polyethylene terephtalate (PET)",90.42,"Comparstic Raman F2Ba Au IAEA 240930.csv",-1376.29,-629.008,0,128.82,0.71098,TRUE
29,133,772,62.6352,63.0457,"A142",6284.83,4070.73,1037.5,60,27,27,60,"Polyamide (naturally occurring)",0.953825,"Comparstic LDIR F2Ba Au MP2 240925.xlsx",36.3454,0.444444,1.83563,"image",-738.548,-2777.73,0.93624,1644.46,"441",5304.02,3938.93,536.184,30.052,25.02,22.792,34.444,"Polyvinyl Chloride (PVC)",1.83,"Comparstic Raman F2Ba Au IAEA 240930.csv",-53.0621,1612.73,0,89.0636,0.703264,TRUE
30,141,48,16.8362,16.933,"A162",5892.68,2125.69,850,56,22,22,56,"Polyamide (naturally occurring)",0.921465,"Comparstic LDIR F2Ba Au MP2 240925.xlsx",32.8976,2.5,1.73695,"image",-1130.7,-4722.76,-688.647,3583.33,"540",4659.92,5924.06,929.176,65.932,19.271,19.271,64.953,"Cellulose Acetate Butyrate (CAB)",92.9,"Comparstic Raman F2Ba Au IAEA 240930.csv",-697.166,3597.85,1,73.4389,0.229255,FALSE
31,143,327,29.8254,30.1693,"A169",9947.98,5312.63,800,45,25,25,45,"Polyamide",0.694726,"Comparstic LDIR F2Ba Au MP2 240925.xlsx",31.9154,1.8,1.79863,"image",2924.6,-1535.82,3944.7,910.093,"167",9301.83,3266.12,348.173,34.833,27.152,27.152,36.166,"Polyacrylamide/acrylate",66.46,"Comparstic Raman F2Ba Au IAEA 240930.csv",3944.74,939.918,1,63.2082,0.47186,FALSE
32,144,332,85.6072,85.7052,"A171",6880.89,1276.34,800,35,28,28,35,"Polycarbonate",0.838984,"Comparstic LDIR F2Ba Au MP2 240925.xlsx",31.9154,1.25,1.8788,"image",-142.488,-5572.12,200.495,4601.08,"89",5618.03,6866.67,637.357,37.248,26.651,26.651,37.314,"Polyacrylamide/acrylate",65.25,"Comparstic Raman F2Ba Au IAEA 240930.csv",260.953,4540.47,0,380.154,0.225191,FALSE
33,148,370,99.2216,99.5366,"A205",10534.3,7787.12,725,37,26,26,37,"Polyamide (naturally occurring)",0.972781,"Comparstic LDIR F2Ba Au MP2 240925.xlsx",30.3825,1.42105,1.80654,"image",3510.92,938.667,4911.74,-1543.65,"136",10195.6,715.54,327.411,39.7,14.657,14.657,40.759,"Polyamide (PA)",55.64,"Comparstic Raman F2Ba Au IAEA 240930.csv",4838.57,-1610.66,0,316.105,0.313888,FALSE
34,151,40,27.7658,27.8936,"A348",9313.43,2716.55,500,35,20,20,35,"Polyamide (naturally occurring)",0.934526,"Comparstic LDIR F2Ba Au MP2 240925.xlsx",25.2313,1.75,1.88082,"image",2290.06,-4131.91,2910.21,3481.54,"595",8254.15,5832.2,693.71,35.592,26.981,26.981,35.592,"Cellulose Acetate Butyrate (CAB)",93.09,"Comparstic Raman F2Ba Au IAEA 240930.csv",2897.07,3506,1,133.487,0.208003,FALSE
35,153,672,7.85035,8.11076,"A366",9455.17,9939.51,475,44,19,19,44,"Carbonate",0.777911,"Comparstic LDIR F2Ba Au MP2 240925.xlsx",24.5925,2.33333,1.96722,"image",2431.79,3091.06,4121.54,-3912.48,"443",9471.18,-1588.77,345.372,26.706,21.009,19.484,29.524,"Polyphenylene sulphide (PPS)",8.34,"Comparstic Raman F2Ba Au IAEA 240930.csv",4114.09,-3914.97,1,238.852,0.032867,FALSE