Folder: FTIR-LDIR-Raman/output/2026-02-19_2

Note: output/2026-02-19_2/ldir_transform_params.txt
# LDIR-to-Raman Transform Parameters
scale:        1.000756
rotation_deg: 41.7824
tx:           -1038.7642
ty:           -329.0255
reflected:    FALSE
icp_converged:  TRUE
icp_final_rms:  149.7225 um

Note: README.md
# Multi-Instrument Microplastic Particle Matching Pipeline

Spatial alignment and material cross-validation of microplastic particles detected by **FTIR**, **Raman**, and **LDIR** microspectroscopy on the same filter sample.

## What it does

When the same filter is analysed by multiple instruments, each produces its own particle list with coordinates, sizes, and material identifications. This pipeline:

1. **Ingests** tabular data and companion images from all three instruments
2. **Extracts spatial coordinates** for LDIR via a Python-based image processing backend (scipy/numpy sigma-clipping + auto-tuned threshold)
3. **Aligns** coordinate systems using a tiered approach (Landmark → RANSAC → ICP)
4. **Matches** particles spatially across all three instrument pairs (FTIR↔Raman, LDIR↔Raman, LDIR↔FTIR)
5. **Identifies triplets** — particles detected by all three instruments simultaneously, with material-agreement quality scoring
6. **Compares** material identifications to assess inter-instrument agreement at Exact / Family / Disagree tiers
7. **Exports** matched pairs, agreement statistics, diagnostic plots, and a Shiny viewer

## Quick start

### Prerequisites

**R (≥ 4.0)** with these packages:
```r
install.packages(c("readxl", "ggplot2", "RANN", "png", "clue", "reticulate"))
```

**Python 3** with these packages (for LDIR image processing):
```bash
pip3 install numpy scipy Pillow matplotlib
```

The Python backend is invoked automatically via `reticulate`. If Python or its packages are unavailable, the pipeline falls back to an R-based saturation segmentation approach.

### Running the pipeline

**Option A — Hardcoded paths** (non-interactive):

```r
ftir_file  <- "Comparstic Spotlight F2Ba Au 240926.csv"
raman_file <- "Comparstic Raman F2Ba Au IAEA 240930.csv"
ldir_file  <- "Comparstic LDIR F2Ba Au MP2 240925.xlsx"          # optional
ftir_image <- "Average Abs.( Comparstic Spotlight F2Ba Au 240926 ).png"  # optional
ldir_image <- "LDIR_particle_map.png"                             # optional
source("main.R")
```

**Option B — Interactive file picker**:

```r
input_mode <- "interactive"
source("main.R")
```

Results are written to a timestamped subfolder under `output/` (e.g. `output/2026-02-19_1/`).

## Input data formats

| Instrument | Format | Key columns |
|------------|--------|-------------|
| **FTIR** (PerkinElmer Spotlight) | CSV (comma-separated) | `Coord. [um]` (bracketed X;Y), `Group` (material), `Max AAU score` |
| **Raman** (Horiba / WITec) | CSV (semicolon-separated) | `Visual Center Point X/Y [um]`, `Material`, `HQI`, `Feret Max [um]` |
| **LDIR** (Agilent 8700) | XLSX | `Identification` (material), `Quality`, `Width/Height [um]` — **no X/Y coordinates** |
| **FTIR image** | PNG | Chemical absorption map exported from the FTIR instrument |
| **LDIR image** | PNG | Colored particle map exported from Agilent LDIR software |

The ingest module auto-detects CSV delimiters and handles encoding differences (Latin-1, UTF-8).

## Pipel

File: ldir_raman_matched.csv
"match_id","ldir_idx","raman_idx","match_distance","match_score","ldir_particle_id","ldir_x_um","ldir_y_um","ldir_area_um2","ldir_major_um","ldir_minor_um","ldir_feret_min_um","ldir_feret_max_um","ldir_material","ldir_quality","ldir_source_file","ldir_diameter_um","ldir_aspect_ratio","ldir_coord_match_cost","ldir_coord_source","ldir_x_norm","ldir_y_norm","ldir_x_aligned","ldir_y_aligned","raman_particle_id","raman_x_um","raman_y_um","raman_area_um2","raman_major_um","raman_minor_um","raman_feret_min_um","raman_feret_max_um","raman_material","raman_quality","raman_source_file","raman_x_norm","raman_y_norm","n_ref_candidates","next_best_distance","ambiguity_score","ambiguity_flag"
1,24,315,81.938,83.4372,"A24",7965.21,7814.625,9050,145,100,100,145,"Polyamide (naturally occurring)",0.781206,"Comparstic LDIR F2Ba Au MP2 240925.xlsx",107.344,0.689655,0.331172,"image",2101.97,1365.73,-380.856,2091.75,"696",4972.21,4499.79,351.634,25.043,20.095,20.018,26.43,"Polyacrylamide/acrylate",69.48,"Comparstic Raman F2Ba Au IAEA 240930.csv",-384.873,2173.59,0,163.635,0.500737,FALSE
2,32,699,78.8621,79.9858,"A32",7550.89,124.258,6450,111,81,81,111,"Polyethylene terephthalate",0.881695,"Comparstic LDIR F2Ba Au MP2 240925.xlsx",90.6223,1.37755,0.0252132,"image",1687.65,-6324.64,4437.95,-3923.42,"428",9717.45,-1583.03,548.212,27.77,26.274,26.274,33.286,"Polycarbonate (PC)",6.45,"Comparstic Raman F2Ba Au IAEA 240930.csv",4360.37,-3909.23,0,132.172,0.596664,FALSE
3,38,77,10.2902,10.3953,"A38",5939.97,1594.67,4550,110,57,57,110,"Polyethylene terephthalate",0.918361,"Comparstic LDIR F2Ba Au MP2 240925.xlsx",76.1133,0.516129,0.0354351,"image",76.734,-4854.23,2255.33,-3900.3,"368",7610.05,-1564.08,4543.72,87.373,73.131,73.131,88.111,"Polyethylene terephtalate (PET)",91.93,"Comparstic Raman F2Ba Au IAEA 240930.csv",2252.97,-3890.29,1,225.101,0.0457138,FALSE
4,49,314,86.5948,87.5549,"A49",2390.1,2355.71,3275,80,50,50,80,"Polyethylene terephthalate",0.911702,"Comparstic LDIR F2Ba Au MP2 240925.xlsx",64.5744,0.625,0.117396,"image",-3473.13,-4093.19,-901.207,-5699.45,"93",4440.62,-3288.01,411.283,26.47,20.142,20.142,27.555,"Polyacrylamide/acrylate",69.78,"Comparstic Raman F2Ba Au IAEA 240930.csv",-916.46,-5614.21,0,264.91,0.326885,FALSE
5,57,649,68.3392,68.9091,"A57",7520.5,5657.6,2712.5,60,60,60,60,"Cellulosic",0.822302,"Comparstic LDIR F2Ba Au MP2 240925.xlsx",58.7679,1,0.759514,"image",1657.26,-791.297,725.601,185.547,"729",6067.53,2578.39,572.105,53.217,17.651,17.651,53.176,"Polyethylene naphtalate (PEN)",9.25,"Comparstic Raman F2Ba Au IAEA 240930.csv",710.448,252.185,0,320.861,0.212987,FALSE
6,63,378,61.0153,61.8546,"A63",647.292,5734.03,2462.5,73,54,54,73,"Carbonate",0.860504,"Comparstic LDIR F2Ba Au MP2 240925.xlsx",55.9942,0.735849,0.289548,"image",-5215.95,-714.867,-4454.46,-4340.52,"69",896.328,-2075,412.601,26.101,21.843,20.738,27.603,"Polyvinyl Chloride (PVC)",53.44,"Comparstic Raman F2Ba Au IAEA 240930.csv",-4460.75,-4401.21,0,194.932,0.313007,FALSE
7,66,623,86.1585,87.3284,"A66",4516.47,11030.7,2387.5,180,30,30,180,"Cellulosic",0.942099,"Comparstic LDIR F2Ba Au MP2 240925.xlsx",55.1349,6,0.978377,"image",-1346.77,4581.82,-5098.97,2192.1,"668",174.725,4539.98,357.236,30.909,18.584,18.584,31,"Polyether sulphone (PES)",10.96,"Comparstic Raman F2Ba Au IAEA 240930.csv",-5182.36,2213.77,0,614.8,0.140141,FALSE
8,85,750,53.9518,54.4365,"A85",8488.025,7132.88,1700,60,39,39,60,"Polycarbonate",0.887871,"Comparstic LDIR F2Ba Au MP2 240925.xlsx",46.5243,1.54545,0.579463,"image",2624.79,683.987,463.883,1931.62,"97",5848.81,4304.04,443.25,49.528,24.96,24.96,49.292,"Polyether sulphone (PES)",3.49,"Comparstic Raman F2Ba Au IAEA 240930.csv",491.728,1977.83,0,169.073,0.319104,FALSE
9,98,242,93.7059,94.0131,"A98",2569.88,4672.47,1425,53,35,35,53,"Polyamide (naturally occurring)",0.970435,"Comparstic LDIR F2Ba Au MP2 240925.xlsx",42.5954,0.666667,0.390601,"image",-3293.35,-1776.43,-2311.88,-3850.7,"370",2952.06,-1534.8,694.04,38.451,24.518,24.389,39.537,"Polyacrylamide/acrylate",81.96,"Comparstic Raman F2Ba Au IAEA 240930.csv",-2405.02,-3861.01,0,136.877,0.684601,FALSE
10,101,313,35.6788,36.0574,"A101",9806.01,6795.8,1400,45,40,40,45,"Polyamide (naturally occurring)",0.920072,"Comparstic LDIR F2Ba Au MP2 240925.xlsx",42.2201,0.888889,0.338309,"image",3942.77,346.908,1672.19,2558.92,"427",7035.41,4849.98,495.154,40.877,22.762,22.762,40.795,"Polyacrylamide/acrylate",69.8,"Comparstic Raman F2Ba Au IAEA 240930.csv",1678.33,2523.77,1,94.9005,0.37596,FALSE
11,103,209,1.35172,1.71337,"A103",5759,10152,1375,65,41,41,65,"Polyamide (naturally occurring)",0.805444,"Comparstic LDIR F2Ba Au MP2 240925.xlsx",41.8414,0.627907,0.641389,"image",-104.237,3703.07,-3585.78,2364.87,"541",1771.78,4689.81,787.963,35.316,29.227,29.116,36.779,"Polyacrylamide/acrylate",86.13,"Comparstic Raman F2Ba Au IAEA 240930.csv",-3585.3,2363.61,1,301.579,0.00448215,FALSE
12,110,392,45.7804,46.5546,"A110",5552.68,122.254,1275,40,40,40,40,"Polyamide (naturally occurring)",0.911696,"Comparstic LDIR F2Ba Au MP2 240925.xlsx",40.2912,1,0.118429,"image",-310.558,-6326.64,2948.13,-5257.33,"686",8312.71,-2976.29,3750.485,139.39,44.087,44.085,142.999,"Polyamide (PA)",49.67,"Comparstic Raman F2Ba Au IAEA 240930.csv",2955.63,-5302.49,1,102.301,0.447505,FALSE
13,117,465,77.5338,78.7601,"A117",4484.51,9988.39,1212.5,67,27,27,67,"Polycarbonate",0.714527,"Comparstic LDIR F2Ba Au MP2 240925.xlsx",39.2913,0.395349,0.644509,"image",-1378.72,3539.49,-4427.78,1392.96,"658",962.346,3649.03,17029.352,279.471,109.12,109.12,281.338,"Polyamide (PA)",28.38,"Comparstic Raman F2Ba Au IAEA 240930.csv",-4394.74,1322.82,0,127.639,0.607447,FALSE
14,123,176,69.2966,69.6948,"A123",5548.725,1801.2,1150,42,35,35,42,"Polyamide (naturally occurring)",0.967229,"Comparstic LDIR F2Ba Au MP2 240925.xlsx",38.2652,1.2,0.256109,"image",-314.512,-4647.69,1825.64,-4007.06,"551",7248.39,-1703.01,416.885,29.593,20.851,19.671,32.348,"Cellulose Acetate Butyrate (CAB)",88.47,"Comparstic Raman F2Ba Au IAEA 240930.csv",1891.3,-4029.21,0,230.883,0.300137,FALSE
15,135,207,39.5429,39.7339,"A135",695.933,5241.76,1087.5,40,35,35,40,"Polyamide (naturally occurring)",0.93286,"Comparstic LDIR F2Ba Au MP2 240925.xlsx",37.2109,0.875,0.357438,"image",-5167.3,-1207.13,-4089.91,-4675.43,"266",1234.45,-2327.02,635.709,34.91,28.009,26.914,37.215,"Cellulose Acetate Butyrate (CAB)",86.25,"Comparstic Raman F2Ba Au IAEA 240930.csv",-4122.63,-4653.22,1,320.122,0.123525,FALSE
16,150,329,32.9584,33.2858,"A150",3766.425,8596.74,962.5,35,35,35,35,"Cellulosic",0.911131,"Comparstic LDIR F2Ba Au MP2 240925.xlsx",35.007,1,0.698078,"image",-2096.81,2147.84,-4035.69,-124.378,"234",1339.51,2229.36,437.153,24.087,23.809,23.749,25.979,"Polyethylene (PE)",66.19,"Comparstic Raman F2Ba Au IAEA 240930.csv",-4017.57,-96.8478,1,179.244,0.183874,FALSE
17,154,256,23.5562,24.3301,"A154",6173.375,9894.52,925,35,32,32,35,"Polytetrafluoroethylene",0.659396,"Comparstic LDIR F2Ba Au MP2 240925.xlsx",34.3183,1.11111,0.440144,"image",310.138,3445.62,-3104.89,2449.05,"493",2269.5,4759.27,4039.174,94.151,57.665,57.295,94.721,"Polyamide (PA)",80.9,"Comparstic Raman F2Ba Au IAEA 240930.csv",-3087.58,2433.07,1,104.107,0.226269,FALSE
18,156,119,61.0714,61.9317,"A156",3296.04,8770.56,900,36,34,34,36,"Cellulosic",0.839817,"Comparstic LDIR F2Ba Au MP2 240925.xlsx",33.8514,1.06667,0.512349,"image",-2567.2,2321.66,-4502.62,-308.32,"374",871.069,2076.65,4816.92,104.748,66.824,66.824,106.191,"Polyethylene terephtalate (PET)",90.93,"Comparstic Raman F2Ba Au IAEA 240930.csv",-4486.01,-249.55,0,309.792,0.197137,FALSE
19,165,499,77.2807,77.4164,"A165",11500.125,4553.9,825,46,27,27,46,"Cellulosic",0.957407,"Comparstic LDIR F2Ba Au MP2 240925.xlsx",32.4102,0.58,0.805733,"image",5636.89,-1895,4431.33,2015.56,"51",9711.14,4340.78,1031.832,39.037,38.463,36.89,41.874,"Polyethylene naphtalate (PEN)",21.69,"Comparstic Raman F2Ba Au IAEA 240930.csv",4354.05,2014.57,0,103.401,0.74739,TRUE
20,171,172,72.1284,73.85,"A171",4627.24,10377.8,800,35,28,28,35,"Polycarbonate",0.838984,"Comparstic LDIR F2Ba Au MP2 240925.xlsx",31.9154,1.25,0.621228,"image",-1236,3928.95,-4580.97,1778.76,"193",704.589,4095.65,32592.521,249.366,176.886,174.968,256.952,"Polyethylene terephtalate (PET)",88.68,"Comparstic Raman F2Ba Au IAEA 240930.csv",-4652.49,1769.45,0,492.508,0.146451,FALSE
21,174,133,66.9851,67.2029,"A174",2516.26,3702.62,787.5,55,20,20,55,"Carbonate",0.864126,"Comparstic LDIR F2Ba Au MP2 240925.xlsx",31.6651,0.363636,0.701363,"image",-3346.98,-2746.28,-1705.19,-4610.21,"279",3679.98,-2344.81,658.613,35.898,27.412,27.386,37.888,"Cellulose Acetate Butyrate (CAB)",90.52,"Comparstic Raman F2Ba Au IAEA 240930.csv",-1677.1,-4671.02,0,387.862,0.172703,FALSE
22,180,278,65.4512,65.6225,"A180",8059.84,4361.07,775,30,30,30,30,"Carbonate",0.686958,"Comparstic LDIR F2Ba Au MP2 240925.xlsx",31.4127,1,0.339702,"image",2196.6,-2087.83,1992.62,-422.35,"498",7308.09,1954.38,626.976,38.261,25.669,25.669,38.486,"Polyacrylamide/acrylate",77.29,"Comparstic Raman F2Ba Au IAEA 240930.csv",1951.01,-371.826,0,176.811,0.370176,FALSE
23,198,199,54.4438,54.7387,"A198",6104.26,4237.73,737.5,30,30,30,30,"Polyamide (naturally occurring)",0.947245,"Comparstic LDIR F2Ba Au MP2 240925.xlsx",30.6433,1,0.419152,"image",241.022,-2211.17,615.517,-1818.38,"277",5972.23,562.264,347.679,31.236,18.191,17.335,32.88,"Cellulose Acetate Butyrate (CAB)",86.72,"Comparstic Raman F2Ba Au IAEA 240930.csv",615.153,-1763.94,0,210.761,0.25832,FALSE
24,200,612,65.3122,66.0496,"A200",10456.225,7164.35,725,30,30,30,30,"Polyamide (naturally occurring)",0.937433,"Comparstic LDIR F2Ba Au MP2 240925.xlsx",30.3825,1,0.29364,"image",4592.99,715.458,1911.66,3267.51,"705",7221.98,5639.32,744.626,249.305,9.549,9.549,247.616,"Polytetrafluoroethylene (PTFE)",11.78,"Comparstic Raman F2Ba Au IAEA 240930.csv",1864.9,3313.11,0,197.734,0.330303,FALSE
25,204,217,66.7606,67.6602,"A204",5951.13,4428.07,725,41,28,28,41,"Polyethylene terephthalate",0.858467,"Comparstic LDIR F2Ba Au MP2 240925.xlsx",30.3825,0.690476,0.484026,"image",87.8924,-2020.83,374.324,-1778.45,"327",5762.7,488.784,4953.026,112.58,60.62,60.395,112.184,"Polyamide (PA)",85.32,"Comparstic Raman F2Ba Au IAEA 240930.csv",405.618,-1837.42,0,111.558,0.598439,FALSE
26,214,703,40.2365,40.3362,"A214",1337.92,4150.14,700,35,25,25,35,"Polyamide (naturally occurring)",0.853869,"Comparstic LDIR F2Ba Au MP2 240925.xlsx",29.8541,0.714286,0.505488,"image",-4525.32,-2298.75,-2882.94,-5061.97,"566",2514.05,-2740.92,628.623,40.267,22.152,22.131,40.593,"Polytetrafluoroethylene (PTFE)",6.01,"Comparstic Raman F2Ba Au IAEA 240930.csv",-2843.03,-5067.12,1,54.9463,0.732287,TRUE
27,223,426,61.3877,61.6719,"A223",8722.19,1738.37,675,28,28,28,28,"Polyamide (naturally occurring)",0.959282,"Comparstic LDIR F2Ba Au MP2 240925.xlsx",29.3162,1,0.348046,"image",2858.95,-4710.53,4235.72,-1937.86,"502",9630.77,340.1,331.201,31.55,20.913,20.913,31.661,"Polyvinyl Chloride (PVC)",36.53,"Comparstic Raman F2Ba Au IAEA 240930.csv",4273.69,-1986.1,0,194.565,0.315512,FALSE
28,224,470,55.0715,55.088,"A224",4375.26,7073.19,675,42,22,22,42,"Rubber",0.805345,"Comparstic LDIR F2Ba Au MP2 240925.xlsx",29.3162,0.526316,0.517461,"image",-1487.98,624.295,-2565.44,-855.342,"102",2761.47,1516.94,679.869,41.826,24.817,24.817,42.361,"Polyacrylamide/acrylate",26.96,"Comparstic Raman F2Ba Au IAEA 240930.csv",-2595.61,-809.266,0,458.024,0.120237,FALSE
29,249,13,31.4191,31.5835,"A249",8781.77,7805.09,625,35,20,20,35,"Polyamide (naturally occurring)",0.903985,"Comparstic LDIR F2Ba Au MP2 240925.xlsx",28.2095,0.571429,0.631516,"image",2918.53,1356.2,234.857,2629.12,"316",5583.02,4985.46,400.078,31.574,18.944,18.592,32.117,"Polypropylene (PP)",94.64,"Comparstic Raman F2Ba Au IAEA 240930.csv",225.935,2659.25,1,227.362,0.13819,FALSE
30,253,544,45.1832,46.2987,"A253",1941.01,2234.54,612.5,30,25,25,30,"Polyamide (naturally occurring)",0.957049,"Comparstic LDIR F2Ba Au MP2 240925.xlsx",27.926,1.2,0.611011,"image",-3922.23,-4214.36,-1155.54,-6089.34,"343",4193.2,-3807.54,5925.209,114.322,72.226,70.408,117.839,"Polyether sulphone (PES)",16.93,"Comparstic Raman F2Ba Au IAEA 240930.csv",-1163.88,-6133.74,1,101.667,0.444422,FALSE
31,255,295,85.6167,85.7862,"A255",2342.55,1477.72,612.5,30,25,25,30,"Polyamide (naturally occurring)",0.918732,"Comparstic LDIR F2Ba Au MP2 240925.xlsx",27.926,1.2,0.611011,"image",-3520.69,-4971.18,-351.249,-6386.36,"545",5010.1,-4145.66,463.517,36.279,22.565,22.565,36.713,"Cellulose Acetate Butyrate (CAB)",73.93,"Comparstic Raman F2Ba Au IAEA 240930.csv",-346.985,-6471.87,0,208.21,0.411203,FALSE
32,257,621,91.4469,93.2547,"A257",10796.4,2342.22,612.5,30,25,25,30,"Polyethylene terephthalate",0.724432,"Comparstic LDIR F2Ba Au MP2 240925.xlsx",27.926,0.833333,0.611011,"image",4933.21,-4106.68,5380.97,-104.115,"203",10788.1,2145.54,14861.713,394.132,71.39,71.39,394.384,"Polycarbonate (PC)",11.17,"Comparstic Raman F2Ba Au IAEA 240930.csv",5431.01,-180.662,0,115.693,0.790425,TRUE
33,265,421,14.5491,14.7684,"A265",3582.26,4484.24,600,30,25,25,30,"Polyamide (naturally occurring)",0.935189,"Comparstic LDIR F2Ba Au MP2 240925.xlsx",27.6395,1.2,0.654476,"image",-2280.98,-1964.65,-1430.89,-3316.11,"777",3940.03,-985.422,324.281,29.633,17.455,17.455,30.551,"Polyacrylamide/acrylate",37.31,"Comparstic Raman F2Ba Au IAEA 240930.csv",-1417.05,-3311.63,1,95.9301,0.151663,FALSE
34,277,625,38.9194,39.1229,"A277",10592.8,3579.66,587.5,28,25,25,28,"Polyamide (naturally occurring)",0.967806,"Comparstic LDIR F2Ba Au MP2 240925.xlsx",27.3501,1.14286,0.444899,"image",4729.54,-2869.24,4403.86,683.51,"355",9797.82,3022.14,738.859,39.098,28.002,26.966,41.077,"Polycarbonate (PC)",10.8,"Comparstic Raman F2Ba Au IAEA 240930.csv",4440.74,695.94,1,313.605,0.124103,FALSE
35,281,417,91.1312,91.2516,"A281",4780.53,894.996,575,46,25,25,46,"Polyamide (naturally occurring)",0.970071,"Comparstic LDIR F2Ba Au MP2 240925.xlsx",27.0576,0.538461,0.717185,"image",-1082.7,-5553.9,1856.65,-5195.55,"598",7228.29,-2779.38,438.471,42.216,19.89,19.89,42.216,"Polyacrylamide/acrylate",37.76,"Comparstic Raman F2Ba Au IAEA 240930.csv",1871.21,-5105.59,0,179.316,0.508215,FALSE
36,285,740,74.1899,74.2889,"A285",7464.6,8442.85,575,35,20,20,35,"Polyamide (naturally occurring)",0.927075,"Comparstic LDIR F2Ba Au MP2 240925.xlsx",27.0576,0.571429,0.283488,"image",1601.36,1993.95,-1173.34,2226.75,"710",4195.49,4479.7,539.15,28.009,25.167,24.067,30.294,"Polyvinyl Chloride (PVC)",3.96,"Comparstic Raman F2Ba Au IAEA 240930.csv",-1161.59,2153.5,1,23.1087,3.21048,TRUE
37,316,301,55.7502,55.9034,"A316",6483.97,2211.68,537.5,30,20,20,30,"Polyamide (naturally occurring)",0.973096,"Comparstic LDIR F2Ba Au MP2 240925.xlsx",26.1604,0.666667,0.39015,"image",620.73,-4237.22,2249.86,-3077.12,"651",7589.96,-804.017,429.408,37.432,19.115,19.115,36.939,"Polyacrylamide/acrylate",72.75,"Comparstic Raman F2Ba Au IAEA 240930.csv",2232.88,-3130.22,0,192.687,0.289331,FALSE
38,317,177,29.075,29.229,"A317",9078.12,9143.98,537.5,28,25,25,28,"Polyamide (naturally occurring)",0.969958,"Comparstic LDIR F2Ba Au MP2 240925.xlsx",26.1604,0.875,0.385426,"image",3214.88,2695.09,-436.778,3825.87,"410",4895.28,6166.89,352.458,25.979,18.673,17.623,28.754,"Cellulose Acetate Butyrate (CAB)",88.32,"Comparstic Raman F2Ba Au IAEA 240930.csv",-461.798,3840.68,1,161.317,0.180235,FALSE
39,321,195,72.7697,72.8195,"A321",6397.52,4971.25,537.5,35,20,20,35,"Polyamide (naturally occurring)",0.930326,"Comparstic LDIR F2Ba Au MP2 240925.xlsx",26.1604,1.75,0.39015,"image",534.28,-1477.64,345.241,-1075.45,"333",5759.83,1295.35,504.711,32.722,21.241,21.111,32.858,"Cellulose Acetate Butyrate (CAB)",86.98,"Comparstic Raman F2Ba Au IAEA 240930.csv",402.748,-1030.86,0,124.961,0.582339,FALSE
40,324,298,61.2523,61.5493,"A324",3311.64,1951.84,525,25,25,25,25,"Cellulosic",0.784866,"Comparstic LDIR F2Ba Au MP2 240925.xlsx",25.8544,1,0.712481,"image",-2551.6,-4497.05,55.7865,-5386.35,"752",5472.79,-3047.47,854.368,38.639,31.936,31.936,39.023,"Polyacrylamide/acrylate",73.33,"Comparstic Raman F2Ba Au IAEA 240930.csv",115.714,-5373.68,0,238.871,0.256424,FALSE
41,325,87,33.0634,34.2325,"A325",9131.31,9530.52,525,25,25,25,25,"Polyamide (naturally occurring)",0.962711,"Comparstic LDIR F2Ba Au MP2 240925.xlsx",25.8544,1,0.542582,"image",3268.07,3081.62,-654.827,4149.79,"216",4703.54,6509.03,4894.859,113.922,63.7,63.7,114.022,"Cellulose Acetate Butyrate (CAB)",91.59,"Comparstic Raman F2Ba Au IAEA 240930.csv",-653.537,4182.83,1,306.454,0.10789,FALSE
42,327,545,51.144,51.515,"A327",5485.89,10300.4,525,25,25,25,25,"Polyamide (naturally occurring)",0.95,"Comparstic LDIR F2Ba Au MP2 240925.xlsx",25.8544,1,0.712481,"image",-377.345,3851.55,-3888.59,2293.55,"549",1470.4,4670.87,836.077,46.853,27.094,27.094,46.982,"Polyether sulphone (PES)",16.92,"Comparstic Raman F2Ba Au IAEA 240930.csv",-3886.69,2344.66,0,187.748,0.272407,FALSE
43,330,200,78.9978,79.1626,"A330",8831.17,10064.5,525,40,20,20,40,"Polyamide (naturally occurring)",0.951727,"Comparstic LDIR F2Ba Au MP2 240925.xlsx",25.8544,2,0.869156,"image",2967.93,3615.65,-1234.9,4348.17,"204",4129.48,6595.71,678.716,33.587,27.467,27.465,33.985,"Polyacrylamide/acrylate",86.69,"Comparstic Raman F2Ba Au IAEA 240930.csv",-1227.6,4269.51,0,604.416,0.130701,FALSE
[...]
46,362,713,30.7169,30.8624,"A362",7615.18,9416.875,475,37,22,22,37,"Chitin",0.819237,"Comparstic LDIR F2Ba Au MP2 240925.xlsx",24.5925,0.6,0.754243,"image",1751.95,2967.98,-1710.45,3054.02,"64",3626.02,5357.45,578.367,28.24,27.47,25.673,31.574,"Polytetrafluoroethylene (PTFE)",5.38,"Comparstic Raman F2Ba Au IAEA 240930.csv",-1731.06,3031.25,1,109.12,0.281497,FALSE
47,364,698,56.5943,56.843,"A364",10835.7,3119.78,475,25,25,25,25,"Polyamide (naturally occurring)",0.944604,"Comparstic LDIR F2Ba Au MP2 240925.xlsx",24.5925,1,0.482323,"image",4972.43,-3329.11,4891.76,502.287,"451",10239.9,2884.37,788.457,32.148,32.148,30.631,34.504,"Polyphenylene sulphide (PPS)",6.68,"Comparstic Raman F2Ba Au IAEA 240930.csv",4882.77,558.163,0,87.3066,0.648225,FALSE
48,370,117,82.247,84.5272,"A370",2545.56,5605.71,462.5,25,20,20,25,"Polyamide (naturally occurring)",0.927519,"Comparstic LDIR F2Ba Au MP2 240925.xlsx",24.2667,1.25,0.278068,"image",-3317.67,-843.188,-2952.32,-3170.5,"561",2472.14,-797.128,32605.538,573.006,160.833,160.833,571.113,"Polyethylene terephtalate (PET)",90.96,"Comparstic Raman F2Ba Au IAEA 240930.csv",-2884.94,-3123.33,0,230.159,0.357348,FALSE
49,376,108,25.7187,26.4532,"A376",11297.9,3934.18,462.5,25,25,25,25,"Polyamide (naturally occurring)",0.934598,"Comparstic LDIR F2Ba Au MP2 240925.xlsx",24.2667,1,0.884634,"image",5434.63,-2514.72,4693.63,1418.23,"582",10075.7,3750.64,1841.216,62.752,54.33,53.655,69.462,"Cellulose Acetate Butyrate (CAB)",91.08,"Comparstic Raman F2Ba Au IAEA 240930.csv",4718.59,1424.43,1,93.162,0.276065,FALSE
50,396,350,13.4416,13.7807,"A396",9819.06,1135.06,437.5,25,20,20,25,"Polyamide (naturally occurring)",0.945369,"Comparstic LDIR F2Ba Au MP2 240925.xlsx",23.6017,1.25,0.424799,"image",3955.83,-5313.83,5456.55,-1656.68,"156",10815.6,682.818,779.724,40.759,28.102,28.102,41.491,"Polyvinyl Chloride (PVC)",59.94,"Comparstic Raman F2Ba Au IAEA 240930.csv",5458.56,-1643.39,1,200.198,0.0671413,FALSE
51,398,489,87.6757,87.7745,"A398",7947.01,554.071,437.5,30,20,20,30,"Polyamide (naturally occurring)",0.892181,"Comparstic LDIR F2Ba Au MP2 240925.xlsx",23.6017,1.5,0.747186,"image",2083.77,-5894.83,4446.95,-3338.54,"33",9734.1,-1065.22,379.811,31.321,24.389,22.618,34.504,"Polyvinyl Chloride (PVC)",23.57,"Comparstic Raman F2Ba Au IAEA 240930.csv",4377.02,-3391.42,0,122.221,0.717355,TRUE
52,407,246,74.6869,75.0251,"A407",4994.87,4870.29,425,25,20,20,25,"Carbonate",0.783919,"Comparstic LDIR F2Ba Au MP2 240925.xlsx",23.2621,0.8,0.593548,"image",-868.366,-1578.61,-634.151,-2086.09,"642",4659.92,200.028,868.703,37.314,29.852,29.852,37.76,"Polyamide (PA)",81.8,"Comparstic Raman F2Ba Au IAEA 240930.csv",-697.166,-2126.18,0,229.142,0.325941,FALSE
53,413,244,58.175,58.7247,"A413",10631.2,7591.35,425,25,20,20,25,"Polyamide (naturally occurring)",0.955179,"Comparstic LDIR F2Ba Au MP2 240925.xlsx",23.2621,0.8,0.902425,"image",4768,1142.45,1757.54,3702.86,"495",7076.74,5984.91,1391.046,44.713,40.432,40.411,45.925,"Cellulose Acetate Butyrate (CAB)",81.85,"Comparstic Raman F2Ba Au IAEA 240930.csv",1719.66,3658.7,0,315.302,0.184506,FALSE
54,439,613,56.1298,56.2948,"A439",6525.35,9605.7,400,25,20,20,25,"Polyamide (naturally occurring)",0.932969,"Comparstic LDIR F2Ba Au MP2 240925.xlsx",22.5676,1.25,0.609721,"image",662.113,3156.8,-2649.64,2468.22,"505",2720.14,4739.75,445.392,34.375,18.787,18.787,35.018,"Polyether sulphone (PES)",11.75,"Comparstic Raman F2Ba Au IAEA 240930.csv",-2636.94,2413.55,0,298.025,0.188339,FALSE
55,440,362,81.3459,81.6325,"A440",2798.95,2485.275,400,25,20,20,25,"Polyamide (naturally occurring)",0.936523,"Comparstic LDIR F2Ba Au MP2 240925.xlsx",22.5676,1.25,0.609721,"image",-3064.28,-3963.62,-682.501,-5330.14,"751",4604.8,-3045.75,648.561,34.659,23.619,23.619,38.157,"Polyacrylamide/acrylate",57.47,"Comparstic Raman F2Ba Au IAEA 240930.csv",-752.276,-5371.95,0,126.039,0.645403,FALSE
56,445,67,83.5092,83.7152,"A445",5137.71,4899.375,400,25,20,20,25,"Polyamide (naturally occurring)",0.945614,"Comparstic LDIR F2Ba Au MP2 240925.xlsx",22.5676,1.25,0.609721,"image",-725.528,-1549.52,-546.955,-1969.13,"422",4853.38,428.507,609.674,31.067,25.938,25.868,32.148,"Cellulose Acetate Butyrate (CAB)",92.3,"Comparstic Raman F2Ba Au IAEA 240930.csv",-503.705,-1897.7,0,217.314,0.384278,FALSE
57,446,192,96.4235,97.2756,"A446",7400.63,6150.9,400,25,20,20,25,"Polyamide (naturally occurring)",0.938683,"Comparstic LDIR F2Ba Au MP2 240925.xlsx",22.5676,1.25,0.753562,"image",1537.39,-298.001,307.215,473.736,"462",5747.77,2848.2,2307.534,68.645,42.399,42.365,68.769,"Polyamide (PA)",87.17,"Comparstic Raman F2Ba Au IAEA 240930.csv",390.692,521.997,0,120.484,0.800301,TRUE
58,448,252,29.8203,30.2677,"A448",6611.53,6443.61,400,31,18,18,31,"Polyamide (naturally occurring)",0.942708,"Comparstic LDIR F2Ba Au MP2 240925.xlsx",22.5676,0.571429,0.579241,"image",748.292,-5.2841,-476.832,165.997,"788",4856.82,2510.65,1124.931,44.154,31.431,31.406,46.047,"Polyacrylamide/acrylate",81.33,"Comparstic Raman F2Ba Au IAEA 240930.csv",-500.261,184.445,1,168.918,0.176537,FALSE
59,450,389,24.6196,24.842,"A450",7550.02,10056.6,387.5,25,20,20,25,"Polyamide (naturally occurring)",0.96199,"Comparstic LDIR F2Ba Au MP2 240925.xlsx",22.2122,1.25,0.690001,"image",1686.78,3607.69,-2185.64,3487.95,"587",3167.91,5838.52,615.936,31.378,24.793,24.689,32.88,"Polyacrylamide/acrylate",50.31,"Comparstic Raman F2Ba Au IAEA 240930.csv",-2189.17,3512.32,1,137.799,0.178663,FALSE
60,464,427,73.1399,73.3045,"A464",7494.07,8532.17,375,20,20,20,20,"Polyamide (naturally occurring)",0.929651,"Comparstic LDIR F2Ba Au MP2 240925.xlsx",21.851,1,0.830283,"image",1630.83,2083.27,-1210.91,2313.05,"632",4167.37,4569.26,339.77,28.836,24.559,24.559,29.852,"Polyvinyl Chloride (PVC)",36.33,"Comparstic Raman F2Ba Au IAEA 240930.csv",-1189.72,2243.05,0,167.006,0.437947,FALSE
61,465,639,96.7669,96.8685,"A465",992.442,5819.83,375,34,16,16,34,"Polycarbonate",0.685081,"Comparstic LDIR F2Ba Au MP2 240925.xlsx",21.851,0.466667,0.70881,"image",-4870.8,-629.067,-4254.1,-4046.34,"489",1056.49,-1635.27,328.4,37.86,13.476,13.476,38.51,"Polycarbonate (PC)",9.72,"Comparstic Raman F2Ba Au IAEA 240930.csv",-4300.59,-3961.47,0,107.999,0.896,TRUE
62,467,346,9.77189,10.5862,"A467",3217.5,8092.5,375,25,20,20,25,"Polyamide (naturally occurring)",0.95646,"Comparstic LDIR F2Ba Au MP2 240925.xlsx",21.851,1.25,0.627551,"image",-2645.74,1643.6,-4109.1,-866.689,"137",1256.27,1464.7,1980.617,65.448,40.495,40.078,66.247,"Polyethylene terephtalate (PET)",60.54,"Comparstic Raman F2Ba Au IAEA 240930.csv",-4100.81,-861.506,1,240.905,0.0405633,FALSE
63,469,700,73.7741,73.8774,"A469",3423.6,4492.04,375,21,21,21,21,"Polyamide (naturally occurring)",0.960812,"Comparstic LDIR F2Ba Au MP2 240925.xlsx",21.851,1,0.743202,"image",-2439.63,-1956.85,-1554.48,-3416.08,"11",3836.7,-1024.46,326.917,23.326,22.485,22.485,25.529,"Polytetrafluoroethylene (PTFE)",6.41,"Comparstic Raman F2Ba Au IAEA 240930.csv",-1520.38,-3350.66,0,172.626,0.427365,FALSE
64,474,497,89.5052,90.477,"A474",7360,5965,362.5,25,20,20,25,"Polyamide (naturally occurring)",0.780131,"Comparstic LDIR F2Ba Au MP2 240925.xlsx",21.4837,0.8,0.617001,"image",1496.77,-483.901,400.858,307.92,"593",5757.53,2723.63,2787.364,77.359,50.34,50.34,77.97,"Polyamide (PA)",22.53,"Comparstic Raman F2Ba Au IAEA 240930.csv",400.451,397.424,0,214.318,0.417627,FALSE
65,484,170,84.3776,84.8233,"A484",3841.99,9261.96,350,25,20,20,25,"Polyamide (naturally occurring)",0.91882,"Comparstic LDIR F2Ba Au MP2 240925.xlsx",21.11,1.25,0.773808,"image",-2021.25,2813.06,-4422.88,422.425,"518",878.532,2812.04,809.548,36.626,36.611,33.313,44.671,"Polyacrylamide/acrylate",88.72,"Comparstic Raman F2Ba Au IAEA 240930.csv",-4478.55,485.831,0,190.866,0.442077,FALSE
66,485,557,75.177,75.4511,"A485",3590.98,3110.2,350,25,18,18,25,"Polyamide (naturally occurring)",0.949885,"Comparstic LDIR F2Ba Au MP2 240925.xlsx",21.11,1.4,0.605572,"image",-2272.26,-3338.7,-508.157,-4335.67,"744",4797.69,-1954.45,450.17,45.049,27.93,27.93,46.276,"Polyethylene terephtalate (PET)",16.08,"Comparstic Raman F2Ba Au IAEA 240930.csv",-559.39,-4280.65,0,387.043,0.194234,FALSE
67,499,79,92.5365,94.1832,"A499",11841.3,2952.57,337.5,25,15,15,25,"Polycarbonate",0.778684,"Comparstic LDIR F2Ba Au MP2 240925.xlsx",20.7296,1.66667,0.68846,"image",5978.08,-3496.33,5753.72,1048.08,"141",11124.5,3282.77,11156.872,170.706,90.985,90.45,176.338,"Polyethylene terephtalate (PET)",91.82,"Comparstic Raman F2Ba Au IAEA 240930.csv",5767.41,956.566,0,254.244,0.363967,FALSE