Folder: FTIR-LDIR-Raman/output/2026-02-18_3

Note: output/2026-02-18_3/ldir_transform_params.txt
# LDIR-to-Raman Transform Parameters
scale:        1.027003
rotation_deg: 8.4078
tx:           1186.3272
ty:           -1124.9156
reflected:    TRUE
icp_converged:  TRUE
icp_final_rms:  139.826 um

Note: output/2026-02-18_3/match_statistics.txt
# Match Statistics
# Generated: 2026-02-18 18:59:44.125226

n_ftir:            360
n_raman:           792
n_matched:         322
n_unmatched_ftir:  38
n_unmatched_raman: 470
match_rate_ftir:   89.4%
match_rate_raman:  40.7%
mean_distance_um:  17.453
median_distance_um:15.436
max_distance_um:   92.957

# Tiered agreement
agreement_n_pairs:       174
agreement_exact_pct:     0%
agreement_family_pct:    11.5%
agreement_family_or_better_pct: 11.5%

Note: output/2026-02-18_3/tps_assessment.txt
# TPS (Thin-Plate Spline) Assessment
# Generated: 2026-02-18 18:59:48.670834

systematic_distortion: FALSE
recommend_tps:         FALSE
dx_range_um:           6.65
dy_range_um:           8.65
assessment:            Quadrant dx range: 6.6 <U+00B5>m, dy range: 8.7 <U+00B5>m

Note: README.md
# Multi-Instrument Microplastic Particle Matching Pipeline

Spatial alignment and material cross-validation of microplastic particles detected by **FTIR**, **Raman**, and **LDIR** microspectroscopy on the same filter sample.

## What it does

When the same filter is analysed by multiple instruments, each produces its own particle list with coordinates, sizes, and material identifications. This pipeline:

1. **Ingests** tabular data and companion images from all three instruments
2. **Extracts spatial coordinates** for LDIR via a Python-based image processing backend (scipy/numpy sigma-clipping + auto-tuned threshold)
3. **Aligns** coordinate systems using a tiered approach (Landmark → RANSAC → ICP)
4. **Matches** particles spatially across all three instrument pairs (FTIR↔Raman, LDIR↔Raman, LDIR↔FTIR)
5. **Identifies triplets** — particles detected by all three instruments simultaneously, with material-agreement quality scoring
6. **Compares** material identifications to assess inter-instrument agreement at Exact / Family / Disagree tiers
7. **Exports** matched pairs, agreement statistics, diagnostic plots, and a Shiny viewer

## Quick start

### Prerequisites

**R (≥ 4.0)** with these packages:
```r
install.packages(c("readxl", "ggplot2", "RANN", "png", "clue", "reticulate"))
```

**Python 3** with these packages (for LDIR image processing):
```bash
pip3 install numpy scipy Pillow matplotlib
```

The Python backend is invoked automatically via `reticulate`. If Python or its packages are unavailable, the pipeline falls back to an R-based saturation segmentation approach.

### Running the pipeline

**Option A — Hardcoded paths** (non-interactive):

```r
ftir_file  <- "Comparstic Spotlight F2Ba Au 240926.csv"
raman_file <- "Comparstic Raman F2Ba Au IAEA 240930.csv"
ldir_file  <- "Comparstic LDIR F2Ba Au MP2 240925.xlsx"          # optional
ftir_image <- "Average Abs.( Comparstic Spotlight F2Ba Au 240926 ).png"  # optional
ldir_image <- "LDIR_particle_map.png"                             # optional
source("main.R")
```

**Option B — Interactive file picker**:

```r
input_mode <- "interactive"
source("main.R")
```

Results are written to a timestamped subfolder under `output/` (e.g. `output/2026-02-19_1/`).

## Input data formats

| Instrument | Format | Key columns |
|------------|--------|-------------|
| **FTIR** (PerkinElmer Spotlight) | CSV (comma-separated) | `Coord. [um]` (bracketed X;Y), `Group` (material), `Max AAU score` |
| **Raman** (Horiba / WITec) | CSV (semicolon-separated) | `Visual Center Point X/Y [um]`, `Material`, `HQI`, `Feret Max [um]` |
| **LDIR** (Agilent 8700) | XLSX | `Identification` (material), `Quality`, `Width/Height [um]` — **no X/Y coordinates** |
| **FTIR image** | PNG | Chemical absorption map exported from the FTIR instrument |
| **LDIR image** | PNG | Colored particle map exported from Agilent LDIR software |

The ingest module auto-detects CSV delimiters and handles encoding differences (Latin-1, UTF-8).

## Pipel

File: ldir_raman_matched.csv
"match_id","ldir_idx","raman_idx","match_distance","match_score","ldir_particle_id","ldir_x_um","ldir_y_um","ldir_area_um2","ldir_major_um","ldir_minor_um","ldir_feret_min_um","ldir_feret_max_um","ldir_material","ldir_quality","ldir_source_file","ldir_diameter_um","ldir_aspect_ratio","ldir_coord_match_cost","ldir_coord_source","ldir_x_norm","ldir_y_norm","ldir_x_aligned","ldir_y_aligned","raman_particle_id","raman_x_um","raman_y_um","raman_area_um2","raman_major_um","raman_minor_um","raman_feret_min_um","raman_feret_max_um","raman_material","raman_quality","raman_source_file","raman_x_norm","raman_y_norm","n_ref_candidates","next_best_distance","ambiguity_score","ambiguity_flag"
1,3,196,48.9275,51.2547,"A3",2056.41,7141.73,122862.5,427,367,367,427,"Polyethylene terephthalate",0.812781,"Comparstic LDIR F2Ba Au MP2 240925.xlsx",395.517,0.859259,0.581523,"image",-4966.97,293.279,-3815.9,-2168.75,"656",1505.41,190.843,641.97,36.514,22.086,22.086,38.567,"Cellulose Acetate Butyrate (CAB)",86.94,"Comparstic Raman F2Ba Au IAEA 240930.csv",-3851.67,-2135.36,1,125.345,0.390342,FALSE
2,6,191,60.3922,62.2527,"A6",11605.1,9073.5,46587.5,308,219,219,308,"Polyethylene terephthalate",0.85533,"Comparstic LDIR F2Ba Au MP2 240925.xlsx",243.551,1.40574,0.189218,"image",4581.7,2225.04,6175.3,-2697.47,"398",11506.2,-425.706,727.654,37.693,28.131,28.129,40.593,"Cellulose Acetate Butyrate (CAB)",87.18,"Comparstic Raman F2Ba Au IAEA 240930.csv",6149.16,-2751.91,0,128.111,0.471406,FALSE
3,7,680,54.6693,56.9195,"A7",9750.59,6113.26,43325,362,175,175,362,"Polyethylene terephthalate",0.784743,"Comparstic LDIR F2Ba Au MP2 240925.xlsx",234.868,2.06825,0.164373,"image",2727.21,-735.189,3846.68,31.5461,"140",9153.72,2379.76,405.021,23.363,22.336,22.022,25.234,"Polycarbonate (PC)",7.8,"Comparstic Raman F2Ba Au IAEA 240930.csv",3796.64,53.5579,0,273.966,0.199548,FALSE
4,17,248,58.1327,58.8194,"A17",9774.82,5362.27,16550,447,135,135,447,"Polyethylene terephthalate",0.88498,"Comparstic LDIR F2Ba Au MP2 240925.xlsx",145.162,0.302043,0.195509,"image",2751.44,-1486.19,3758.52,798.173,"185",9089.99,3176.57,5918.782,138.258,56.566,56.566,138.247,"Polyamide (PA)",81.69,"Comparstic Raman F2Ba Au IAEA 240930.csv",3732.91,850.364,0,105.101,0.553114,FALSE
5,24,644,78.1908,79.64,"A24",8170.08,10789.7,9050,145,100,100,145,"Polyamide (naturally occurring)",0.781206,"Comparstic LDIR F2Ba Au MP2 240925.xlsx",107.344,0.689655,0.0228124,"image",1146.71,3941.21,2943.18,-4956.85,"546",8362.65,-2677.77,387.555,27.271,19.652,19.652,27.412,"Polyethylene (PE)",9.42,"Comparstic Raman F2Ba Au IAEA 240930.csv",3005.57,-5003.98,0,285.508,0.273866,FALSE
6,33,363,63.813,64.7963,"A33",10135.9,4853,6375,416,57,57,416,"Cellulosic",0.833986,"Comparstic LDIR F2Ba Au MP2 240925.xlsx",90.0939,7.29736,0.395827,"image",3112.49,-1995.45,4048.86,1369.78,"570",9414.34,3759.25,2044.386,62.249,47.296,47.296,64.296,"Polyamide (PA)",57.42,"Comparstic Raman F2Ba Au IAEA 240930.csv",4057.26,1433.04,0,107.419,0.594055,FALSE
7,38,118,66.9869,67.899,"A38",9433.9,2799.55,4550,110,57,57,110,"Polyethylene terephthalate",0.918361,"Comparstic LDIR F2Ba Au MP2 240925.xlsx",76.1133,0.516129,0.606497,"image",2410.52,-4048.9,3027.32,3350.61,"637",8384.47,5743.8,691.898,35.764,27.184,25.833,38.463,"Cellulose Acetate Butyrate (CAB)",90.96,"Comparstic Raman F2Ba Au IAEA 240930.csv",3027.38,3417.59,0,121.825,0.549863,FALSE
8,40,525,60.7226,61.7715,"A40",9842.65,9987.73,4150,104,59,59,104,"Polyamide (naturally occurring)",0.93986,"Comparstic LDIR F2Ba Au MP2 240925.xlsx",72.6907,0.566038,0.814972,"image",2819.27,3139.28,4522.02,-3890.95,"359",9889.67,-1504.95,341.418,41.119,19.29,19.29,40.593,"Polyphenylene sulphide (PPS)",18.69,"Comparstic Raman F2Ba Au IAEA 240930.csv",4532.59,-3831.16,0,162.68,0.373264,FALSE
9,46,474,60.4923,60.7563,"A46",9642.92,5608.05,3475,167,43,43,167,"Cellulosic",0.894829,"Comparstic LDIR F2Ba Au MP2 240925.xlsx",66.517,0.254237,0.653299,"image",2619.54,-1240.4,3661.42,528.656,"448",8963.13,2879.2,2879.145,95.239,40.25,40.25,95.212,"Polyamide (PA)",26.37,"Comparstic Raman F2Ba Au IAEA 240930.csv",3606.04,552.997,0,121.57,0.497591,FALSE
10,47,78,49.8545,50.7761,"A47",9550.125,8509.01,3362.5,190,32,32,190,"Cellulosic",0.822389,"Comparstic LDIR F2Ba Au MP2 240925.xlsx",65.4314,5.9869,0.558208,"image",2526.75,1660.56,4002.78,-2432.56,"55",9341.44,-60.025,802.793,41.299,30.251,25.962,47.648,"Polyethylene terephtalate (PET)",91.85,"Comparstic Raman F2Ba Au IAEA 240930.csv",3984.36,-2386.23,1,250.597,0.198943,FALSE
11,56,167,43.294,43.9473,"A56",7376.65,1919.09,2862.5,64,57,57,64,"Polyamide (naturally occurring)",0.910238,"Comparstic LDIR F2Ba Au MP2 240925.xlsx",60.3709,1.1236,1.34332,"image",353.268,-4929.36,805.01,3936.19,"369",6192.68,6231.76,583.31,38.377,21.691,21.192,40.185,"Polyacrylamide/acrylate",88.85,"Comparstic Raman F2Ba Au IAEA 240930.csv",835.595,3905.55,1,211.252,0.20494,FALSE
12,60,120,26.5819,26.7327,"A60",10422,3942.69,2612.5,85,49,49,85,"Polyethylene terephthalate",0.918983,"Comparstic LDIR F2Ba Au MP2 240925.xlsx",57.6744,1.72881,1.29372,"image",3398.63,-2905.76,4202.87,2337.6,"552",9584.27,4653.07,3575.492,77.04,61.54,61.54,77.221,"Polyethylene terephtalate (PET)",90.88,"Comparstic Raman F2Ba Au IAEA 240930.csv",4227.19,2326.87,1,239.558,0.110962,FALSE
13,63,377,78.062,78.7703,"A63",2765.95,10595.9,2462.5,73,54,54,73,"Carbonate",0.860504,"Comparstic LDIR F2Ba Au MP2 240925.xlsx",55.9942,0.735849,1.22608,"image",-4257.43,3747.49,-2576.32,-5571.56,"71",2702.92,-3251.27,468.296,42.231,16.856,16.856,42.216,"Polycarbonate (PC)",53.53,"Comparstic Raman F2Ba Au IAEA 240930.csv",-2654.16,-5577.47,0,237.551,0.328611,FALSE
14,72,5,91.2264,91.4233,"A72",2113.33,6839.82,2100,65,40,40,65,"Polyethylene terephthalate",0.930435,"Comparstic LDIR F2Ba Au MP2 240925.xlsx",51.7088,1.625,1.65547,"image",-4910.04,-8.6308,-3803.4,-1853.47,"454",1536.41,383.155,1996.93,105.231,29.38,29.38,99.314,"Polypropylene (PP)",96.54,"Comparstic Raman F2Ba Au IAEA 240930.csv",-3820.67,-1943.05,0,285.993,0.318982,FALSE
15,74,771,61.0579,61.1432,"A74",5094.28,5185.25,1975,79,34,34,79,"Polyethylene terephthalate",0.892499,"Comparstic LDIR F2Ba Au MP2 240925.xlsx",50.1463,0.435644,1.4922,"image",-1929.1,-1663.2,-1023.33,275.152,"644",4328.68,2662.2,1772.834,66.434,46.164,45.955,75.203,"Polycarbonate (PC)",1.86,"Comparstic Raman F2Ba Au IAEA 240930.csv",-1028.4,335.999,0,95.6747,0.638183,FALSE
16,81,210,94.1622,94.6184,"A81",8790.74,9857.41,1812.5,60,42,42,60,"Polyamide (naturally occurring)",0.927072,"Comparstic LDIR F2Ba Au MP2 240925.xlsx",48.039,1.41667,1.71106,"image",1767.36,3008.95,3433.75,-3916.51,"358",8836.26,-1507.82,749.734,31.662,30.249,29.886,34.659,"Polyacrylamide/acrylate",85.96,"Comparstic Raman F2Ba Au IAEA 240930.csv",3479.18,-3834.03,0,220.873,0.426318,FALSE
17,83,280,82.9694,83.4701,"A83",11889.2,8158.07,1750,50,40,40,50,"Polyethylene terephthalate",0.941419,"Comparstic LDIR F2Ba Au MP2 240925.xlsx",47.2035,0.8,1.59558,"image",4865.86,1309.62,6326.53,-1724.75,"225",11765.1,616.801,579.52,27.698,27.366,25.887,30.317,"Polyacrylamide/acrylate",77.16,"Comparstic Raman F2Ba Au IAEA 240930.csv",6408.07,-1709.4,0,91.4636,0.907131,TRUE
18,85,726,75.2516,75.8345,"A85",5028.71,8908.96,1700,60,39,39,60,"Polycarbonate",0.887871,"Comparstic LDIR F2Ba Au MP2 240925.xlsx",46.5243,1.54545,1.65906,"image",-1994.67,2060.51,-530.77,-3517.85,"180",4831.56,-1266.72,438.801,32.037,24.266,24.111,34.915,"Polyethylene naphtalate (PEN)",4.42,"Comparstic Raman F2Ba Au IAEA 240930.csv",-525.52,-3592.92,0,358.036,0.210179,FALSE
19,87,124,78.4454,78.8179,"A87",10452.2,6533.3,1625,55,40,40,55,"Polyamide (naturally occurring)",0.925916,"Comparstic LDIR F2Ba Au MP2 240925.xlsx",45.4864,1.4,0.611713,"image",3428.84,-315.151,4622.59,-289.835,"417",9904.02,2057.14,733.751,32.132,30.135,26.463,37.929,"Polyacrylamide/acrylate",90.78,"Comparstic Raman F2Ba Au IAEA 240930.csv",4546.94,-269.068,0,144.123,0.544295,FALSE
20,91,88,25.0929,25.5889,"A91",1377.04,8788.82,1475,68,36,36,68,"Polycarbonate",0.869741,"Comparstic LDIR F2Ba Au MP2 240925.xlsx",43.3362,0.523365,1.38322,"image",-5646.34,1940.37,-4258.78,-3944.15,"471",1123.08,-1614.03,605.719,33.296,24.111,23.391,34.673,"Polyethylene terephtalate (PET)",91.59,"Comparstic Raman F2Ba Au IAEA 240930.csv",-4234,-3940.23,2,45.2519,0.554516,FALSE
21,105,259,29.9827,30.4884,"A106",8434.35,1890.46,1312.5,40,40,40,40,"Polyamide (naturally occurring)",0.914074,"Comparstic LDIR F2Ba Au MP2 240925.xlsx",40.8794,1,1.55812,"image",1410.97,-4957.99,1875.3,4124.11,"246",7202.46,6452.2,381.788,50.111,15.284,15.284,49.806,"Cellulose Acetate Butyrate (CAB)",80.79,"Comparstic Raman F2Ba Au IAEA 240930.csv",1845.38,4125.99,1,177.759,0.16867,FALSE
22,114,222,21.3515,21.7226,"A117",1734.18,7464.795,1212.5,67,27,27,67,"Polycarbonate",0.714527,"Comparstic LDIR F2Ba Au MP2 240925.xlsx",39.2913,0.395349,1.37149,"image",-5289.2,616.343,-4094.76,-2545.36,"207",1242.49,-227.079,649.715,39.705,23.05,22.914,40.185,"Cellulose Acetate Butyrate (CAB)",84.73,"Comparstic Raman F2Ba Au IAEA 240930.csv",-4114.59,-2553.28,1,113.214,0.188593,FALSE
23,126,409,73.3619,73.8325,"A131",10324.3,6559.25,1125,74,23,23,74,"Polyamide (naturally occurring)",0.922772,"Comparstic LDIR F2Ba Au MP2 240925.xlsx",37.847,0.306667,1.70945,"image",3300.9,-289.198,4496.5,-335.416,"526",9887.37,1925.67,524.485,36.483,18.173,18.173,37.483,"Polyvinyl Chloride (PVC)",42.98,"Comparstic Raman F2Ba Au IAEA 240930.csv",4530.29,-400.53,0,83.3461,0.880207,TRUE
24,127,136,34.7592,37.0013,"A132",4596.3,5988.91,1112.5,50,30,30,50,"Polyamide (naturally occurring)",0.933069,"Comparstic LDIR F2Ba Au MP2 240925.xlsx",37.6361,0.6,1.83258,"image",-2427.07,-859.537,-1408.57,-616.12,"506",3980.79,1697.2,136970.052,656.575,292.589,292.589,656.253,"Polyethylene terephtalate (PET)",90.42,"Comparstic Raman F2Ba Au IAEA 240930.csv",-1376.29,-629.008,1,186.976,0.185902,FALSE
25,133,772,76.6453,77.0557,"A142",6284.83,4070.73,1037.5,60,27,27,60,"Polyamide (naturally occurring)",0.953825,"Comparstic LDIR F2Ba Au MP2 240925.xlsx",36.3454,0.444444,1.83563,"image",-738.548,-2777.73,18.8665,1586.25,"441",5304.02,3938.93,536.184,30.052,25.02,22.792,34.444,"Polyvinyl Chloride (PVC)",1.83,"Comparstic Raman F2Ba Au IAEA 240930.csv",-53.0621,1612.73,0,146.935,0.521626,FALSE
26,134,176,79.8623,80.2329,"A143",7211.26,9743.05,1012.5,45,30,30,45,"Carbonate",0.802803,"Comparstic LDIR F2Ba Au MP2 240925.xlsx",35.9048,1.5,1.71287,"image",187.877,2894.6,1811.88,-4037.52,"551",7248.39,-1703.01,416.885,29.593,20.851,19.671,32.348,"Cellulose Acetate Butyrate (CAB)",88.47,"Comparstic Raman F2Ba Au IAEA 240930.csv",1891.3,-4029.21,0,258.024,0.309514,FALSE
27,141,32,61.743,62.0483,"A162",5892.68,2125.69,850,56,22,22,56,"Polyamide (naturally occurring)",0.921465,"Comparstic LDIR F2Ba Au MP2 240925.xlsx",32.8976,2.5,1.73695,"image",-1130.7,-4722.76,-671.623,3503.45,"568",4731.1,5871.24,488.234,37.995,19.079,19.079,37.888,"Cellulose Acetate Butyrate (CAB)",93.35,"Comparstic Raman F2Ba Au IAEA 240930.csv",-625.982,3545.04,0,97.7915,0.631374,FALSE
28,143,327,67.6814,68.0252,"A169",9947.98,5312.63,800,45,25,25,45,"Polyamide",0.694726,"Comparstic LDIR F2Ba Au MP2 240925.xlsx",31.9154,1.8,1.79863,"image",2924.6,-1535.82,3926.99,874.606,"167",9301.83,3266.12,348.173,34.833,27.152,27.152,36.166,"Polyacrylamide/acrylate",66.46,"Comparstic Raman F2Ba Au IAEA 240930.csv",3944.74,939.918,0,75.001,0.902407,TRUE
29,144,332,61.7395,61.8374,"A171",6880.89,1276.34,800,35,28,28,35,"Polycarbonate",0.838984,"Comparstic LDIR F2Ba Au MP2 240925.xlsx",31.9154,1.25,1.8788,"image",-142.488,-5572.12,204.819,4514.77,"89",5618.03,6866.67,637.357,37.248,26.651,26.651,37.314,"Polyacrylamide/acrylate",65.25,"Comparstic Raman F2Ba Au IAEA 240930.csv",260.953,4540.47,0,331.166,0.186431,FALSE
30,148,370,81.3591,81.6741,"A205",10534.3,7787.12,725,37,26,26,37,"Polyamide (naturally occurring)",0.972781,"Comparstic LDIR F2Ba Au MP2 240925.xlsx",30.3825,1.42105,1.80654,"image",3510.92,938.667,4894.25,-1551.35,"136",10195.6,715.54,327.411,39.7,14.657,14.657,40.759,"Polyamide (PA)",55.64,"Comparstic Raman F2Ba Au IAEA 240930.csv",4838.57,-1610.66,0,335.195,0.242722,FALSE
31,151,40,89.2703,89.3982,"A348",9313.43,2716.55,500,35,20,20,35,"Polyamide (naturally occurring)",0.934526,"Comparstic LDIR F2Ba Au MP2 240925.xlsx",25.2313,1.75,1.88082,"image",2290.06,-4131.91,2892.47,3416.85,"595",8254.15,5832.2,693.71,35.592,26.981,26.981,35.592,"Cellulose Acetate Butyrate (CAB)",93.09,"Comparstic Raman F2Ba Au IAEA 240930.csv",2897.07,3506,0,134.916,0.661675,FALSE
32,153,672,16.4012,16.6616,"A366",9455.17,9939.51,475,44,19,19,44,"Carbonate",0.777911,"Comparstic LDIR F2Ba Au MP2 240925.xlsx",24.5925,2.33333,1.96722,"image",2431.79,3091.06,4121.11,-3900.15,"443",9471.18,-1588.77,345.372,26.706,21.009,19.484,29.524,"Polyphenylene sulphide (PPS)",8.34,"Comparstic Raman F2Ba Au IAEA 240930.csv",4114.09,-3914.97,1,239.428,0.0685016,FALSE