Folder: FTIR-LDIR-Raman/output/2026-02-17_2

Note: output/2026-02-17_2/ldir_transform_params.txt
# LDIR-to-Raman Transform Parameters
scale:        0.98691
rotation_deg: -103.2984
tx:           1987.1844
ty:           581.5791
reflected:    FALSE
icp_converged:  TRUE
icp_final_rms:  142.3199 um

Note: output/2026-02-17_2/tps_assessment.txt
# TPS (Thin-Plate Spline) Assessment
# Generated: 2026-02-17 15:23:28.067919

systematic_distortion: FALSE
recommend_tps:         FALSE
dx_range_um:           6.65
dy_range_um:           8.65
assessment:            Quadrant dx range: 6.6 <U+00B5>m, dy range: 8.7 <U+00B5>m

Note: README.md
# Multi-Instrument Microplastic Particle Matching Pipeline

Spatial alignment and material cross-validation of microplastic particles detected by **FTIR**, **Raman**, and **LDIR** microspectroscopy on the same filter sample.

## What it does

When the same filter is analysed by multiple instruments, each produces its own particle list with coordinates, sizes, and material identifications. This pipeline:

1. **Ingests** tabular data and companion images from all three instruments
2. **Extracts spatial coordinates** for LDIR via a Python-based image processing backend (scipy/numpy sigma-clipping + auto-tuned threshold)
3. **Aligns** coordinate systems using a tiered approach (Landmark → RANSAC → ICP)
4. **Matches** particles spatially across all three instrument pairs (FTIR↔Raman, LDIR↔Raman, LDIR↔FTIR)
5. **Identifies triplets** — particles detected by all three instruments simultaneously, with material-agreement quality scoring
6. **Compares** material identifications to assess inter-instrument agreement at Exact / Family / Disagree tiers
7. **Exports** matched pairs, agreement statistics, diagnostic plots, and a Shiny viewer

## Quick start

### Prerequisites

**R (≥ 4.0)** with these packages:
```r
install.packages(c("readxl", "ggplot2", "RANN", "png", "clue", "reticulate"))
```

**Python 3** with these packages (for LDIR image processing):
```bash
pip3 install numpy scipy Pillow matplotlib
```

The Python backend is invoked automatically via `reticulate`. If Python or its packages are unavailable, the pipeline falls back to an R-based saturation segmentation approach.

### Running the pipeline

**Option A — Hardcoded paths** (non-interactive):

```r
ftir_file  <- "Comparstic Spotlight F2Ba Au 240926.csv"
raman_file <- "Comparstic Raman F2Ba Au IAEA 240930.csv"
ldir_file  <- "Comparstic LDIR F2Ba Au MP2 240925.xlsx"          # optional
ftir_image <- "Average Abs.( Comparstic Spotlight F2Ba Au 240926 ).png"  # optional
ldir_image <- "LDIR_particle_map.png"                             # optional
source("main.R")
```

**Option B — Interactive file picker**:

```r
input_mode <- "interactive"
source("main.R")
```

Results are written to a timestamped subfolder under `output/` (e.g. `output/2026-02-19_1/`).

## Input data formats

| Instrument | Format | Key columns |
|------------|--------|-------------|
| **FTIR** (PerkinElmer Spotlight) | CSV (comma-separated) | `Coord. [um]` (bracketed X;Y), `Group` (material), `Max AAU score` |
| **Raman** (Horiba / WITec) | CSV (semicolon-separated) | `Visual Center Point X/Y [um]`, `Material`, `HQI`, `Feret Max [um]` |
| **LDIR** (Agilent 8700) | XLSX | `Identification` (material), `Quality`, `Width/Height [um]` — **no X/Y coordinates** |
| **FTIR image** | PNG | Chemical absorption map exported from the FTIR instrument |
| **LDIR image** | PNG | Colored particle map exported from Agilent LDIR software |

The ingest module auto-detects CSV delimiters and handles encoding differences (Latin-1, UTF-8).

## Pipel

File: ldir_raman_matched.csv
"match_id","ldir_idx","raman_idx","match_distance","match_score","ldir_particle_id","ldir_x_um","ldir_y_um","ldir_area_um2","ldir_major_um","ldir_minor_um","ldir_feret_min_um","ldir_feret_max_um","ldir_material","ldir_quality","ldir_source_file","ldir_diameter_um","ldir_aspect_ratio","ldir_coord_match_cost","ldir_coord_source","ldir_x_norm","ldir_y_norm","ldir_x_aligned","ldir_y_aligned","raman_particle_id","raman_x_um","raman_y_um","raman_area_um2","raman_major_um","raman_minor_um","raman_feret_min_um","raman_feret_max_um","raman_material","raman_quality","raman_source_file","raman_x_norm","raman_y_norm","n_ref_candidates","next_best_distance","ambiguity_score","ambiguity_flag"
1,6,118,55.2342,57.1277,"A6",2539.68,6505.5,46587.5,308,219,219,308,"Polyethylene terephthalate",0.85533,"Comparstic LDIR F2Ba Au MP2 240925.xlsx",243.551,1.40574,0.0100163,"image",-2985.58,381.366,3031.23,3362.49,"637",8384.47,5743.8,691.898,35.764,27.184,25.833,38.463,"Cellulose Acetate Butyrate (CAB)",90.96,"Comparstic Raman F2Ba Au IAEA 240930.csv",3027.38,3417.59,0,124.002,0.445429,FALSE
2,11,613,60.6764,62.5369,"A11",4795.22,1075.87,27050,269,177,177,269,"Cellulosic",0.777987,"Comparstic LDIR F2Ba Au MP2 240925.xlsx",185.583,1.52003,0.135317,"image",-730.036,-5048.27,-2695.68,2428.76,"505",2720.14,4739.75,445.392,34.375,18.787,18.787,35.018,"Polyether sulphone (PES)",11.75,"Comparstic Raman F2Ba Au IAEA 240930.csv",-2636.94,2413.55,0,348.164,0.174275,FALSE
3,12,11,39.0309,40.7073,"A12",2766.97,6341.97,24787.5,297,147,147,297,"Polyethylene terephthalate",0.852741,"Comparstic LDIR F2Ba Au MP2 240925.xlsx",177.653,2.02254,0.0403793,"image",-2758.29,217.833,2822.57,3181.32,"790",8141.63,5498.67,816.139,33.286,31.662,31.131,39.611,"Cellulose Acetate Butyrate (CAB)",95.03,"Comparstic Raman F2Ba Au IAEA 240930.csv",2784.55,3172.47,1,54.1088,0.721341,TRUE
4,14,13,86.502,88.5021,"A14",3808.28,3941.71,21112.5,437,191,191,437,"Polyethylene terephthalate",0.906823,"Comparstic LDIR F2Ba Au MP2 240925.xlsx",163.955,0.437253,0.164269,"image",-1716.97,-2182.42,280.859,2726.08,"316",5583.02,4985.46,400.078,31.574,18.944,18.592,32.117,"Polypropylene (PP)",94.64,"Comparstic Raman F2Ba Au IAEA 240930.csv",225.935,2659.25,0,120.223,0.719511,TRUE
5,15,95,19.7874,21.7122,"A15",4013.62,2971.5,18800,220,120,120,220,"Polyethylene terephthalate",0.870952,"Comparstic LDIR F2Ba Au MP2 240925.xlsx",154.716,1.83333,0.0311436,"image",-1511.64,-3152.63,-697.586,2749.11,"237",4659.92,5095.1,324.281,22.819,19.472,18.916,23.521,"Polyethylene terephtalate (PET)",91.41,"Comparstic Raman F2Ba Au IAEA 240930.csv",-697.166,2768.9,1,79.6591,0.248401,FALSE
6,19,636,67.1859,67.9362,"A19",7089.39,3195.74,13425,371,65,65,371,"Rubber",0.75796,"Comparstic LDIR F2Ba Au MP2 240925.xlsx",130.741,5.75075,0.171321,"image",1564.13,-2928.39,-1180.46,-255.904,"326",4213.29,2126.6,4155.012,119.728,54.118,54.118,120.554,"Polyether sulphone (PES)",9.94,"Comparstic Raman F2Ba Au IAEA 240930.csv",-1143.79,-199.606,0,227.808,0.294923,FALSE
7,24,296,29.7621,30.4906,"A24",5015.26,6459.23,9050,145,100,100,145,"Polyamide (naturally occurring)",0.781206,"Comparstic LDIR F2Ba Au MP2 240925.xlsx",107.344,0.689655,0.0370068,"image",-509.996,335.1,2424.8,995.331,"147",7763.32,3298.27,1888.013,66.129,35.144,35.144,66.166,"Polyamide (PA)",73.52,"Comparstic Raman F2Ba Au IAEA 240930.csv",2406.24,972.066,1,102.404,0.290634,FALSE
8,33,245,76.682,77.9732,"A33",5305.73,6463.89,6375,416,57,57,416,"Cellulosic",0.833986,"Comparstic LDIR F2Ba Au MP2 240925.xlsx",90.0939,7.29736,0.384743,"image",-219.533,339.756,2363.34,715.3,"254",7699.03,3115.14,1056.878,42.141,34.876,34.876,44.777,"Polyamide (PA)",81.82,"Comparstic Raman F2Ba Au IAEA 240930.csv",2341.95,788.938,0,116.917,0.655866,FALSE
9,39,104,66.0366,67.0528,"A39",10385.7,8078.19,4537.5,192,45,45,192,"Polyamide (naturally occurring)",0.878685,"Comparstic LDIR F2Ba Au MP2 240925.xlsx",76.0087,4.28309,0.0920945,"image",4860.44,1954.06,2760.58,-4530.21,"132",8146.23,-2144.46,839.208,43.346,26.766,26.766,43.15,"Cellulose Acetate Butyrate (CAB)",91.13,"Comparstic Raman F2Ba Au IAEA 240930.csv",2789.15,-4470.67,0,104.077,0.634495,FALSE
10,40,661,86.2114,87.0403,"A40",3616.32,3932.04,4150,104,59,59,104,"Polyamide (naturally occurring)",0.93986,"Comparstic LDIR F2Ba Au MP2 240925.xlsx",72.6907,0.566038,0.0306709,"image",-1908.94,-2192.1,315.144,2912.64,"202",5697.83,5156.53,699.148,39.63,23.53,23.53,39.542,"Polyether sulphone (PES)",8.83,"Comparstic Raman F2Ba Au IAEA 240930.csv",340.748,2830.32,0,268.638,0.32092,FALSE
11,48,531,57.8645,58.7094,"A48",11711.2,5079.48,3325,94,46,46,94,"Polyethylene terephthalate",0.877625,"Comparstic LDIR F2Ba Au MP2 240925.xlsx",65.0655,0.485294,0.140045,"image",6185.91,-1044.65,-420.427,-5122.51,"631",4891.26,-2832.2,467.966,45.112,14.534,14.534,44.777,"Polyether sulphone (PES)",18.05,"Comparstic Raman F2Ba Au IAEA 240930.csv",-465.817,-5158.4,0,360.285,0.160608,FALSE
12,55,540,44.2647,44.9236,"A55",3394.7,3367.62,2887.5,99,59,59,99,"Polyethylene terephthalate",0.913073,"Comparstic LDIR F2Ba Au MP2 240925.xlsx",60.634,0.597484,0.222015,"image",-2130.56,-2756.51,-176.638,3253.63,"722",5142.13,5602,799.497,39.732,26.941,26.872,41.405,"Polyether sulphone (PES)",17.21,"Comparstic Raman F2Ba Au IAEA 240930.csv",-214.949,3275.8,1,190.87,0.231911,FALSE
13,56,315,7.78769,8.69197,"A56",4510.44,3406.43,2862.5,64,57,57,64,"Polyamide (naturally occurring)",0.910238,"Comparstic LDIR F2Ba Au MP2 240925.xlsx",60.3709,1.1236,0.453906,"image",-1014.82,-2717.71,-392.652,2173.21,"696",4972.21,4499.79,351.634,25.043,20.095,20.018,26.43,"Polyacrylamide/acrylate",69.48,"Comparstic Raman F2Ba Au IAEA 240930.csv",-384.873,2173.59,1,160.763,0.0484419,FALSE
14,70,33,87.2379,89.1658,"A70",9909.17,209.583,2175,75,40,40,75,"Polyethylene terephthalate",0.873115,"Comparstic LDIR F2Ba Au MP2 240925.xlsx",52.6241,0.533333,0.522431,"image",4383.91,-5914.55,-4688.63,-2286.26,"579",606.424,101.288,130536.836,733.367,340.6,340.6,739.551,"Polyethylene terephtalate (PET)",93.29,"Comparstic Raman F2Ba Au IAEA 240930.csv",-4750.66,-2224.92,0,358.559,0.243301,FALSE
15,73,511,47.6998,48.3886,"A73",5871.48,6179.67,2012.5,66,43,43,66,"Polyamide (naturally occurring)",0.911342,"Comparstic LDIR F2Ba Au MP2 240925.xlsx",50.6201,1.55556,0.661626,"image",346.221,55.5367,1961.93,236.445,"789",7289.72,2525,426.607,32.998,27.289,27.289,33.632,"Polycarbonate (PC)",20.02,"Comparstic Raman F2Ba Au IAEA 240930.csv",1932.64,198.797,1,95.0717,0.501724,FALSE
16,92,487,53.3902,54.0019,"A92",5728.125,4586.37,1475,50,45,45,50,"Polyamide (naturally occurring)",0.939255,"Comparstic LDIR F2Ba Au MP2 240925.xlsx",43.3362,0.9,1.2353,"image",202.866,-1537.76,464.191,735.828,"344",5867.18,3034.77,336.639,24.679,21.813,21.47,28.683,"Polyurethane (PU)",23.87,"Comparstic Raman F2Ba Au IAEA 240930.csv",510.098,708.569,0,226.11,0.236125,FALSE
17,101,254,58.2452,59.9601,"A101",3698.19,8781.12,1400,45,40,40,45,"Polyamide (naturally occurring)",0.920072,"Comparstic LDIR F2Ba Au MP2 240925.xlsx",42.2201,0.888889,1.34161,"image",-1827.07,2656.98,4953.84,1733.22,"239",10364.4,4082.45,35471.83,426.172,250.3,242.64,481.892,"Polyethylene terephtalate (PET)",81.1,"Comparstic Raman F2Ba Au IAEA 240930.csv",5007.34,1756.24,0,229.676,0.253598,FALSE
18,104,539,64.2559,64.8754,"A104",7278.56,6195.94,1350,60,30,30,60,"Polyamide (naturally occurring)",0.878474,"Comparstic LDIR F2Ba Au MP2 240925.xlsx",41.4593,2,1.14246,"image",1753.3,71.8116,1658.14,-1118.67,"447",7079.04,1200.05,378.657,28.962,18.21,18.21,29.046,"Polyether sulphone (PES)",17.31,"Comparstic Raman F2Ba Au IAEA 240930.csv",1721.95,-1126.15,0,203.326,0.316024,FALSE
19,118,180,80.9635,81.5577,"A118",7714.85,10430.55,1187.5,50,30,30,50,"Polyamide (naturally occurring)",0.899157,"Comparstic LDIR F2Ba Au MP2 240925.xlsx",38.8841,1.66667,1.33878,"image",2189.59,4306.42,5626.2,-2499.02,"212",11045.8,-224.208,360.861,24.111,20.092,20.086,24.922,"Polyacrylamide/acrylate",88.07,"Comparstic Raman F2Ba Au IAEA 240930.csv",5688.76,-2550.41,0,247.876,0.326628,FALSE
20,139,783,70.7212,70.7715,"A139",7428.28,11262.6,1050,49,40,40,49,"Polyamide (naturally occurring)",0.92371,"Comparstic LDIR F2Ba Au MP2 240925.xlsx",36.5637,0.818182,0.866423,"image",1903.02,5138.47,6490.4,-2412.67,"56",11786.4,-50.8399,988.331,38.759,34.754,31.96,45.351,"Polyethylene terephtalate (PET)",1.15,"Comparstic Raman F2Ba Au IAEA 240930.csv",6429.31,-2377.04,0,113.725,0.62186,FALSE
21,153,587,82.0169,82.2384,"A153",6480.9,3053.57,925,40,30,30,40,"Polyamide (naturally occurring)",0.878134,"Comparstic LDIR F2Ba Au MP2 240925.xlsx",34.3183,0.75,1.2665,"image",955.64,-3070.56,-1178.87,360.792,"685",4248.31,2644.41,703.432,55.168,24.782,24.698,55.685,"Polyethylene terephtalate (PET)",13.52,"Comparstic Raman F2Ba Au IAEA 240930.csv",-1108.77,318.203,0,152.491,0.537847,FALSE
22,155,403,97.2492,99.2214,"A155",3571.21,6081.83,912.5,39,32,32,39,"Polyamide (naturally occurring)",0.924572,"Comparstic LDIR F2Ba Au MP2 240925.xlsx",34.0856,1.22222,1.34405,"image",-1954.05,-42.2995,2390.15,2467.94,"170",7653.68,4820.7,28243.567,684.286,88.538,88.538,681.487,"Polyacrylamide/acrylate",44.6,"Comparstic Raman F2Ba Au IAEA 240930.csv",2296.6,2494.49,0,309.114,0.314606,FALSE
23,156,605,73.0421,73.0541,"A156",2191.58,5378.21,900,36,34,34,36,"Cellulosic",0.839817,"Comparstic LDIR F2Ba Au MP2 240925.xlsx",33.8514,1.06667,1.45676,"image",-3333.68,-745.925,2027.55,3952.73,"394",7375.25,6206.5,882.05,36.128,32.555,32.54,36.166,"Polycarbonate (PC)",12.27,"Comparstic Raman F2Ba Au IAEA 240930.csv",2018.17,3880.29,0,251.407,0.290533,FALSE
24,157,100,72.7537,72.924,"A157",5841.875,580.125,887.5,40,30,30,40,"Polyamide (naturally occurring)",0.947237,"Comparstic LDIR F2Ba Au MP2 240925.xlsx",33.6155,1.33333,1.35917,"image",316.616,-5544.01,-3409.42,1536.04,"468",1893.48,3910.8,1345.732,41.59,41.334,41.334,42.874,"Polyamide (PA)",91.23,"Comparstic Raman F2Ba Au IAEA 240930.csv",-3463.6,1584.6,0,79.8942,0.910625,TRUE
25,167,655,98.5337,98.7947,"A167",6198.7,7683.54,812.5,35,30,30,35,"Rubber",0.857085,"Comparstic LDIR F2Ba Au MP2 240925.xlsx",32.1638,1.16667,1.40266,"image",673.439,1559.41,3332.03,-419.228,"580",8600.89,1863.1,477.688,42.693,21.033,20.686,42.622,"Polyether sulphone (PES)",9.12,"Comparstic Raman F2Ba Au IAEA 240930.csv",3243.81,-463.103,0,299.083,0.329453,FALSE
26,171,191,38.5183,38.5979,"A171",7861.94,11038.9,800,35,28,28,35,"Polycarbonate",0.838984,"Comparstic LDIR F2Ba Au MP2 240925.xlsx",31.9154,1.25,1.6695,"image",2336.68,4914.8,6177.13,-2778.4,"398",11506.2,-425.706,727.654,37.693,28.131,28.129,40.593,"Cellulose Acetate Butyrate (CAB)",87.18,"Comparstic Raman F2Ba Au IAEA 240930.csv",6149.16,-2751.91,1,147.88,0.260469,FALSE
27,217,732,74.6554,74.8527,"A217",4154.58,4045,687.5,53,22,22,53,"Polyethylene terephthalate",0.906687,"Comparstic LDIR F2Ba Au MP2 240925.xlsx",29.5864,2.44444,1.84775,"image",-1370.68,-2079.13,301.448,2370.03,"521",5731.7,4711.05,497.296,39.648,19.159,19.159,39.793,"Polytetrafluoroethylene (PTFE)",4.21,"Comparstic Raman F2Ba Au IAEA 240930.csv",374.618,2384.85,0,184.63,0.404351,FALSE
28,223,199,53.9159,54.2049,"A223",8104.34,5307.33,675,28,28,28,28,"Polyamide (naturally occurring)",0.959282,"Comparstic LDIR F2Ba Au MP2 240925.xlsx",29.3162,1,2.1702,"image",2579.08,-816.803,617.207,-1710.06,"277",5972.23,562.264,347.679,31.236,18.191,17.335,32.88,"Cellulose Acetate Butyrate (CAB)",86.72,"Comparstic Raman F2Ba Au IAEA 240930.csv",615.153,-1763.94,0,221.592,0.243312,FALSE
29,228,402,84.7703,84.9328,"A228",7754.86,10948.3,662.5,35,25,25,35,"Polyamide (naturally occurring)",0.914865,"Comparstic LDIR F2Ba Au MP2 240925.xlsx",29.0434,1.4,2.07732,"image",2229.6,4824.15,6114.38,-2654.98,"352",11404.6,-380.929,439.295,31.284,20.477,20.477,31.574,"Polyvinyl Chloride (PVC)",44.83,"Comparstic Raman F2Ba Au IAEA 240930.csv",6047.55,-2707.13,0,102.986,0.823127,TRUE
30,229,101,76.7578,76.9644,"A229",3142.08,6438.75,662.5,30,25,25,30,"Rubber",0.704515,"Comparstic LDIR F2Ba Au MP2 240925.xlsx",29.0434,0.833333,1.36462,"image",-2383.18,314.617,2830.37,2799.07,"198",8126.14,5171.45,801.145,44.133,23.772,23.772,43.901,"Polyacrylamide/acrylate",91.2,"Comparstic Raman F2Ba Au IAEA 240930.csv",2769.05,2845.25,0,239.914,0.319939,FALSE
31,235,21,66.2452,68.0042,"A235",4089.11,4517.26,637.5,39,21,21,39,"Polyamide (naturally occurring)",0.949812,"Comparstic LDIR F2Ba Au MP2 240925.xlsx",28.4902,1.83333,2.00168,"image",-1436.15,-1606.87,769.896,2325.7,"514",6091.07,4596.24,29412.328,294.63,158.382,158.382,297.294,"Polyethylene terephtalate (PET)",93.92,"Comparstic Raman F2Ba Au IAEA 240930.csv",733.985,2270.03,0,229.162,0.289076,FALSE
32,241,126,83.9097,84.7836,"A241",6416.78,8269.77,637.5,30,25,25,30,"Polyamide (naturally occurring)",0.921882,"Comparstic LDIR F2Ba Au MP2 240925.xlsx",28.4902,1.2,1.92918,"image",891.522,2145.64,3845.57,-761.766,"21",9285.75,1576.07,3950.524,84.124,66.733,65.01,87.716,"Polyethylene terephtalate (PET)",90.7,"Comparstic Raman F2Ba Au IAEA 240930.csv",3928.67,-750.137,0,188.695,0.444684,FALSE
33,244,742,43.6522,43.9268,"A244",5864.77,7782.77,637.5,39,21,21,39,"Polyamide (naturally occurring)",0.921808,"Comparstic LDIR F2Ba Au MP2 240925.xlsx",28.4902,1.83333,1.798,"image",339.514,1658.63,3503.14,-121.036,"290",8847.74,2163.34,1236.815,45.109,35.741,35.741,45.109,"Polycarbonate (PC)",3.87,"Comparstic Raman F2Ba Au IAEA 240930.csv",3490.66,-162.866,1,125.405,0.34809,FALSE
34,246,428,17.4186,18.2037,"A246",5185.42,9888.75,625,28,28,28,28,"Polyamide (naturally occurring)",0.950523,"Comparstic LDIR F2Ba Au MP2 240925.xlsx",28.2095,1,2.15053,"image",-339.842,3764.62,5680.05,53.3653,"107",11052.2,2388.37,3338.378,69.477,62.933,62.933,69.578,"Polyethylene terephtalate (PET)",35.68,"Comparstic Raman F2Ba Au IAEA 240930.csv",5695.08,62.1689,1,161.502,0.107854,FALSE
35,247,763,82.8663,83.2619,"A247",5162.69,6607.13,625,30,25,25,30,"Polyamide (naturally occurring)",0.95758,"Comparstic LDIR F2Ba Au MP2 240925.xlsx",28.2095,1.2,1.74831,"image",-362.574,482.997,2533.39,820.165,"267",7820.16,3102.51,1153.108,50.757,34.638,34.54,57.236,"Polytetrafluoroethylene (PTFE)",2.29,"Comparstic Raman F2Ba Au IAEA 240930.csv",2463.08,776.309,0,186.252,0.444915,FALSE
36,248,637,65.8789,66.0004,"A248",7821.38,10280,625,30,25,25,30,"Polyamide (naturally occurring)",0.972766,"Comparstic LDIR F2Ba Au MP2 240925.xlsx",28.2095,0.833333,1.80238,"image",2296.12,4155.85,5457.4,-2567.15,"232",10752.5,-263.245,442.096,28.415,24.762,24.636,28.703,"Polyphenylene sulphide (PPS)",9.91,"Comparstic Raman F2Ba Au IAEA 240930.csv",5395.41,-2589.45,0,231.963,0.284006,FALSE
37,250,398,97.3621,97.7414,"A250",5432.92,674.375,625,39,25,25,39,"Cellulosic",0.883321,"Comparstic LDIR F2Ba Au MP2 240925.xlsx",28.2095,0.636364,2.17053,"image",-92.3421,-5449.76,-3226.05,1907.43,"226",2162.72,4141.58,1224.786,64.298,27.794,27.794,63.206,"Polyvinyl Chloride (PVC)",46,"Comparstic Raman F2Ba Au IAEA 240930.csv",-3194.36,1815.37,0,167.619,0.580855,FALSE
38,254,482,31.8173,31.8858,"A254",12083.2,3522.01,612.5,35,20,20,35,"Polyamide (naturally occurring)",0.948805,"Comparstic LDIR F2Ba Au MP2 240925.xlsx",27.926,0.571429,2.09579,"image",6557.91,-2602.12,-2000.74,-5126.23,"623",3332.67,-2821.29,702.608,35.316,26.791,26.791,35.316,"Polyvinyl Chloride (PVC)",24.98,"Comparstic Raman F2Ba Au IAEA 240930.csv",-2024.41,-5147.49,1,180.197,0.176569,FALSE
39,263,714,78.2443,78.356,"A263",5282.23,955.795,600,30,25,25,30,"Polyamide (naturally occurring)",0.94921,"Comparstic LDIR F2Ba Au MP2 240925.xlsx",27.6395,1.2,1.29666,"image",-243.024,-5168.34,-2921.56,1988.27,"2",2395.22,4381.54,721.393,31.317,29.923,29.277,34.696,"Polyvinyl Chloride (PVC)",5.3,"Comparstic Raman F2Ba Au IAEA 240930.csv",-2961.86,2055.33,0,148.809,0.525802,FALSE
40,270,51,63.3975,63.5471,"A270",3763.68,1850.69,600,36,28,28,36,"Polyamide (naturally occurring)",0.937972,"Comparstic LDIR F2Ba Au MP2 240925.xlsx",27.6395,0.785714,2.09723,"image",-1761.58,-4273.44,-1717.33,3243.6,"776",3669.07,5513.6,905.613,34.444,34.444,33.1,36.461,"Polyethylene terephtalate (PET)",92.86,"Comparstic Raman F2Ba Au IAEA 240930.csv",-1688.01,3187.39,0,142.423,0.445136,FALSE
41,280,432,99.0798,99.1399,"A280",9843.03,7252.45,587.5,36,24,24,36,"Polyamide (naturally occurring)",0.951152,"Comparstic LDIR F2Ba Au MP2 240925.xlsx",27.3501,1.53333,2.02304,"image",4317.77,1128.31,2090.68,-3821.55,"414",7387.31,-1573.84,528.274,38.755,28.879,28.879,38.184,"Polyacrylamide/acrylate",35.09,"Comparstic Raman F2Ba Au IAEA 240930.csv",2030.23,-3900.05,0,176.243,0.562179,FALSE
42,292,269,63.3557,63.7323,"A292",2672.58,2946.31,562.5,46,19,19,46,"Cellulosic",0.922326,"Comparstic LDIR F2Ba Au MP2 240925.xlsx",26.7619,2.41667,1.45763,"image",-2852.68,-3177.83,-417.357,4042.83,"323",4959,6308.68,1477.883,47.384,44.272,42.935,51.012,"Polyacrylamide/acrylate",79.1,"Comparstic Raman F2Ba Au IAEA 240930.csv",-398.077,3982.48,0,206.973,0.306106,FALSE
43,293,206,46.8247,47.067,"A293",3761.69,4274.47,562.5,40,20,20,40,"Polyamide",0.687809,"Comparstic LDIR F2Ba Au MP2 240925.xlsx",26.7619,2,1.52751,"image",-1763.56,-1849.66,611.035,2695.28,"305",5929.75,4994.64,1065.612,41.078,34.709,34.709,41.334,"Polyacrylamide/acrylate",86.35,"Comparstic Raman F2Ba Au IAEA 240930.csv",572.672,2668.44,1,174.004,0.269101,FALSE
[...]
56,374,598,62.2462,62.707,"A374",4368,2968.875,462.5,25,20,20,25,"Polyamide (naturally occurring)",0.90558,"Comparstic LDIR F2Ba Au MP2 240925.xlsx",24.2667,0.8,2.30483,"image",-1157.26,-3155.26,-780.561,2409.35,"490",4525.58,4771.33,1204.354,42.839,37.058,37.058,43.494,"Polycarbonate (PC)",12.83,"Comparstic Raman F2Ba Au IAEA 240930.csv",-831.498,2445.12,0,230.793,0.269706,FALSE
57,378,92,42.9986,43.5627,"A378",3604.79,1239.33,462.5,25,20,20,25,"Polyamide (naturally occurring)",0.96043,"Comparstic LDIR F2Ba Au MP2 240925.xlsx",24.2667,0.8,2.30483,"image",-1920.47,-4884.8,-2268.44,3534.99,"556",3055.4,5888.46,1389.398,51.9,36.84,36.663,52.542,"Cellulose Acetate Butyrate (CAB)",91.5,"Comparstic Raman F2Ba Au IAEA 240930.csv",-2301.68,3562.26,1,82.4485,0.521521,FALSE
58,381,84,82.9896,83.3476,"A381",4839,596.789,450,25,20,20,25,"Polyamide (naturally occurring)",0.953584,"Comparstic LDIR F2Ba Au MP2 240925.xlsx",23.9365,0.8,2.11082,"image",-686.264,-5527.34,-3165.74,2495.47,"381",2186.26,4904.51,828.168,42.418,28.508,28.508,42.481,"Cellulose Acetate Butyrate (CAB)",91.66,"Comparstic Raman F2Ba Au IAEA 240930.csv",-3170.82,2578.31,0,100.017,0.829751,TRUE
59,384,138,92.6836,92.8637,"A384",7790.12,5270.42,450,25,20,20,25,"Polyamide (naturally occurring)",0.965927,"Comparstic LDIR F2Ba Au MP2 240925.xlsx",23.9365,0.8,2.11082,"image",2264.86,-853.716,653.084,-1399.9,"14",6015.86,833.798,527.945,35.429,20.538,20.538,35.429,"Cellulose Acetate Butyrate (CAB)",90.32,"Comparstic Raman F2Ba Au IAEA 240930.csv",658.782,-1492.41,0,117.078,0.79164,TRUE
60,385,248,39.2245,40.4944,"A385",4813.79,7778.875,450,30,20,20,30,"Chitin",0.920053,"Comparstic LDIR F2Ba Au MP2 240925.xlsx",23.9365,0.666667,2.18218,"image",-711.467,1654.74,3737.99,889.259,"185",9089.99,3176.57,5918.782,138.258,56.566,56.566,138.247,"Polyamide (PA)",81.69,"Comparstic Raman F2Ba Au IAEA 240930.csv",3732.91,850.364,1,88.8727,0.441356,FALSE
61,388,80,84.0248,85.2979,"A388",5153.53,3064.41,437.5,25,25,25,25,"Polyethylene terephthalate",0.859267,"Comparstic LDIR F2Ba Au MP2 240925.xlsx",23.6017,1,2.36179,"image",-371.728,-3059.72,-867.131,1633.2,"402",4406.18,3965.91,6816.157,104.475,86.384,86.384,105.541,"Polyethylene terephtalate (PET)",91.82,"Comparstic Raman F2Ba Au IAEA 240930.csv",-950.904,1639.71,0,254.949,0.329575,FALSE
62,408,310,65.4469,65.4838,"A408",6348.75,9080.42,425,30,20,20,30,"Carbonate",0.72878,"Comparstic LDIR F2Ba Au MP2 240925.xlsx",23.2621,1.5,1.80855,"image",823.491,2956.28,4639.59,-880.453,"118",9996.45,1511.2,410.953,30.732,18.962,18.962,32.003,"Polyacrylamide/acrylate",70.17,"Comparstic Raman F2Ba Au IAEA 240930.csv",4639.37,-815.006,0,132.01,0.495774,FALSE
63,416,286,49.3881,49.5291,"A416",4001.47,4160.36,425,25,20,20,25,"Polyamide (naturally occurring)",0.96744,"Comparstic LDIR F2Ba Au MP2 240925.xlsx",23.2621,1.25,2.04281,"image",-1523.79,-1963.77,447.004,2490.89,"492",5826.42,4773.05,559.252,29.59,25.052,24.878,29.852,"Polyamide (PA)",76.53,"Comparstic Raman F2Ba Au IAEA 240930.csv",469.339,2446.85,1,128.398,0.384648,FALSE
64,419,32,85.7913,86.0039,"A419",3205.89,2943.31,412.5,25,20,20,25,"Polyamide (naturally occurring)",0.897876,"Comparstic LDIR F2Ba Au MP2 240925.xlsx",22.9175,0.8,2.40914,"image",-2319.37,-3180.82,-541.299,3531.29,"568",4731.1,5871.24,488.234,37.995,19.079,19.079,37.888,"Cellulose Acetate Butyrate (CAB)",93.35,"Comparstic Raman F2Ba Au IAEA 240930.csv",-625.982,3545.04,0,92.4958,0.927516,TRUE
65,421,615,62.9442,63.0037,"A421",6939.27,10379.6,412.5,28,18,18,28,"Carbonate",0.796858,"Comparstic LDIR F2Ba Au MP2 240925.xlsx",22.9175,0.625,2.35247,"image",1414.01,4255.49,5753.36,-1742.55,"282",11169.8,562.838,424.465,28.98,20.578,19.821,32.148,"Polyether sulphone (PES)",11.73,"Comparstic Raman F2Ba Au IAEA 240930.csv",5812.76,-1763.37,0,192.258,0.327395,FALSE
66,426,261,30.9842,31.0507,"A426",7683.15,5335.42,412.5,25,20,20,25,"Polyurethane",0.679958,"Comparstic LDIR F2Ba Au MP2 240925.xlsx",22.9175,1.25,2.40914,"image",2157.9,-788.716,739.796,-1311.92,"677",6110.58,986.5,372.89,25.474,20.808,20.488,28.009,"Cellulose Acetate Butyrate (CAB)",80.43,"Comparstic Raman F2Ba Au IAEA 240930.csv",753.503,-1339.7,1,197.838,0.156614,FALSE
67,434,366,80.7187,81.4074,"A434",4331.98,4697.15,400,25,20,20,25,"Polyamide (naturally occurring)",0.884724,"Comparstic LDIR F2Ba Au MP2 240925.xlsx",22.5676,1.25,2.57344,"image",-1193.28,-1426.98,887.535,2051.6,"757",6175.45,4419.42,1746.634,56.246,46.528,46.528,56.248,"Polyamide (PA)",56.57,"Comparstic Raman F2Ba Au IAEA 240930.csv",818.372,2093.22,0,267.001,0.302316,FALSE
68,447,214,84.5116,84.7976,"A447",7990.94,10809.4,400,25,20,20,25,"Polyamide (naturally occurring)",0.93358,"Comparstic LDIR F2Ba Au MP2 240925.xlsx",22.5676,1.25,2.57344,"image",2465.68,4685.28,5927.4,-2850.19,"431",11358.1,-482.539,692.886,36.396,30.861,30.861,36.74,"Cellulose Acetate Butyrate (CAB)",85.46,"Comparstic Raman F2Ba Au IAEA 240930.csv",6001.05,-2808.74,0,186.818,0.452373,FALSE
69,457,397,97.3033,97.9909,"A457",3704.64,3201.25,387.5,30,15,15,30,"Polyamide (naturally occurring)",0.942416,"Comparstic LDIR F2Ba Au MP2 240925.xlsx",22.2122,0.5,2.04403,"image",-1820.62,-2922.88,-406.786,2993.72,"47",5021.58,5386.15,1810.897,55.685,42.481,41.9,56.639,"Polyacrylamide/acrylate",46.45,"Comparstic Raman F2Ba Au IAEA 240930.csv",-335.503,3059.95,0,157.661,0.617168,FALSE
70,461,420,16.0471,16.1257,"A461",5882.5,5291.31,387.5,28,18,18,28,"Cellulosic",0.961826,"Comparstic LDIR F2Ba Au MP2 240925.xlsx",22.2122,1.6,2.00953,"image",357.241,-832.823,1106.2,427.529,"569",6478.56,2758.65,388.379,22.609,21.813,21.527,24.133,"Polypropylene (PP) Lab bench",37.36,"Comparstic Raman F2Ba Au IAEA 240930.csv",1121.48,432.443,1,91.309,0.175745,FALSE
71,472,400,75.6074,75.9466,"A472",3759.58,1639.58,362.5,29,20,20,29,"Polyamide",0.663111,"Comparstic LDIR F2Ba Au MP2 240925.xlsx",21.4837,0.692308,1.98457,"image",-1765.68,-4484.55,-1919.16,3295.46,"743",3497.43,5575.02,703.762,42.889,23.343,23.343,43.131,"Polyacrylamide/acrylate",45.29,"Comparstic Raman F2Ba Au IAEA 240930.csv",-1859.65,3248.82,0,255.166,0.296307,FALSE
72,473,767,29.504,29.9669,"A473",4732.2,6502.95,362.5,25,20,20,25,"Polyamide (naturally occurring)",0.937963,"Comparstic LDIR F2Ba Au MP2 240925.xlsx",21.4837,1.25,2.69644,"image",-793.062,378.822,2531.06,1257.28,"755",7871.82,3558.9,683.824,54.294,22.516,22.516,52.814,"Polycarbonate (PC)",1.97,"Comparstic Raman F2Ba Au IAEA 240930.csv",2514.74,1232.69,1,190.603,0.154793,FALSE
73,475,139,42.5894,42.951,"A475",6924.96,6434.51,362.5,35,15,15,35,"Polyamide (naturally occurring)",0.924068,"Comparstic LDIR F2Ba Au MP2 240925.xlsx",21.4837,0.428571,2.57586,"image",1399.7,310.375,1967.53,-833.22,"176",7310.96,1452.64,944.006,35.399,35.274,34.17,37.098,"Polyacrylamide/acrylate",90.31,"Comparstic Raman F2Ba Au IAEA 240930.csv",1953.88,-873.561,1,218.961,0.194506,FALSE
74,482,479,91.3336,91.4597,"A482",3815.59,1062.57,350,25,20,20,25,"Polyamide (naturally occurring)",0.942046,"Comparstic LDIR F2Ba Au MP2 240925.xlsx",21.11,0.8,2.90971,"image",-1709.67,-5061.56,-2486.06,3372.66,"645",2959.53,5721.41,315.712,30.081,15.385,15.385,30.445,"Polyacrylamide/acrylate",25.42,"Comparstic Raman F2Ba Au IAEA 240930.csv",-2397.55,3395.21,0,264.466,0.345351,FALSE
75,489,4,84.9695,85.098,"A489",6734.72,2655.07,350,20,20,20,20,"Rubber",0.809738,"Comparstic LDIR F2Ba Au MP2 240925.xlsx",21.11,1,2.87744,"image",1209.46,-3469.06,-1619.23,207.474,"30",3666.78,2487.11,438.471,23.95,23.95,23.651,24.507,"Polyamide (PA)",96.63,"Comparstic Raman F2Ba Au IAEA 240930.csv",-1690.3,160.909,0,169.406,0.501573,FALSE
76,495,152,83.1626,83.7735,"A495",6537.92,2192.4,337.5,20,20,20,20,"Acrylonitrile butadiene styrene",0.913867,"Comparstic LDIR F2Ba Au MP2 240925.xlsx",20.7296,1,2.50834,"image",1012.66,-3931.74,-2018.92,501.527,"445",3270.67,2876.33,869.362,49.998,23.735,23.735,49.944,"Polyamide (PA)",89.72,"Comparstic Raman F2Ba Au IAEA 240930.csv",-2086.41,550.126,0,118.152,0.703861,TRUE
77,504,389,75.6415,75.9167,"A504",3665.37,1271.21,325,25,20,20,25,"Polyamide (naturally occurring)",0.864641,"Comparstic LDIR F2Ba Au MP2 240925.xlsx",20.3421,1.25,2.54747,"image",-1859.89,-4852.93,-2251.58,3469.57,"587",3167.91,5838.52,615.936,31.378,24.793,24.689,32.88,"Polyacrylamide/acrylate",50.31,"Comparstic Raman F2Ba Au IAEA 240930.csv",-2189.17,3512.32,0,105.363,0.717911,TRUE