Folder: FTIR-LDIR-Raman/output/2026-02-17_3

Note: output/2026-02-17_3/tps_assessment.txt
# TPS (Thin-Plate Spline) Assessment
# Generated: 2026-02-17 16:14:09.021319

systematic_distortion: FALSE
recommend_tps:         FALSE
dx_range_um:           6.65
dy_range_um:           8.65
assessment:            Quadrant dx range: 6.6 <U+00B5>m, dy range: 8.7 <U+00B5>m

Note: README.md
# Multi-Instrument Microplastic Particle Matching Pipeline

Spatial alignment and material cross-validation of microplastic particles detected by **FTIR**, **Raman**, and **LDIR** microspectroscopy on the same filter sample.

## What it does

When the same filter is analysed by multiple instruments, each produces its own particle list with coordinates, sizes, and material identifications. This pipeline:

1. **Ingests** tabular data and companion images from all three instruments
2. **Extracts spatial coordinates** for LDIR via a Python-based image processing backend (scipy/numpy sigma-clipping + auto-tuned threshold)
3. **Aligns** coordinate systems using a tiered approach (Landmark → RANSAC → ICP)
4. **Matches** particles spatially across all three instrument pairs (FTIR↔Raman, LDIR↔Raman, LDIR↔FTIR)
5. **Identifies triplets** — particles detected by all three instruments simultaneously, with material-agreement quality scoring
6. **Compares** material identifications to assess inter-instrument agreement at Exact / Family / Disagree tiers
7. **Exports** matched pairs, agreement statistics, diagnostic plots, and a Shiny viewer

## Quick start

### Prerequisites

**R (≥ 4.0)** with these packages:
```r
install.packages(c("readxl", "ggplot2", "RANN", "png", "clue", "reticulate"))
```

**Python 3** with these packages (for LDIR image processing):
```bash
pip3 install numpy scipy Pillow matplotlib
```

The Python backend is invoked automatically via `reticulate`. If Python or its packages are unavailable, the pipeline falls back to an R-based saturation segmentation approach.

### Running the pipeline

**Option A — Hardcoded paths** (non-interactive):

```r
ftir_file  <- "Comparstic Spotlight F2Ba Au 240926.csv"
raman_file <- "Comparstic Raman F2Ba Au IAEA 240930.csv"
ldir_file  <- "Comparstic LDIR F2Ba Au MP2 240925.xlsx"          # optional
ftir_image <- "Average Abs.( Comparstic Spotlight F2Ba Au 240926 ).png"  # optional
ldir_image <- "LDIR_particle_map.png"                             # optional
source("main.R")
```

**Option B — Interactive file picker**:

```r
input_mode <- "interactive"
source("main.R")
```

Results are written to a timestamped subfolder under `output/` (e.g. `output/2026-02-19_1/`).

## Input data formats

| Instrument | Format | Key columns |
|------------|--------|-------------|
| **FTIR** (PerkinElmer Spotlight) | CSV (comma-separated) | `Coord. [um]` (bracketed X;Y), `Group` (material), `Max AAU score` |
| **Raman** (Horiba / WITec) | CSV (semicolon-separated) | `Visual Center Point X/Y [um]`, `Material`, `HQI`, `Feret Max [um]` |
| **LDIR** (Agilent 8700) | XLSX | `Identification` (material), `Quality`, `Width/Height [um]` — **no X/Y coordinates** |
| **FTIR image** | PNG | Chemical absorption map exported from the FTIR instrument |
| **LDIR image** | PNG | Colored particle map exported from Agilent LDIR software |

The ingest module auto-detects CSV delimiters and handles encoding differences (Latin-1, UTF-8).

## Pipel

File: ldir_raman_matched.csv
"match_id","ldir_idx","raman_idx","match_distance","match_score","ldir_particle_id","ldir_x_um","ldir_y_um","ldir_area_um2","ldir_major_um","ldir_minor_um","ldir_feret_min_um","ldir_feret_max_um","ldir_material","ldir_quality","ldir_source_file","ldir_diameter_um","ldir_aspect_ratio","ldir_coord_match_cost","ldir_coord_source","ldir_x_norm","ldir_y_norm","ldir_x_aligned","ldir_y_aligned","raman_particle_id","raman_x_um","raman_y_um","raman_area_um2","raman_major_um","raman_minor_um","raman_feret_min_um","raman_feret_max_um","raman_material","raman_quality","raman_source_file","raman_x_norm","raman_y_norm","n_ref_candidates","next_best_distance","ambiguity_score","ambiguity_flag"
1,14,483,36.5578,38.358,"A14",3808.28,3941.71,21112.5,437,191,191,437,"Polyethylene terephthalate",0.906823,"Comparstic LDIR F2Ba Au MP2 240925.xlsx",163.955,0.437253,0.164269,"image",-1820.14,-2118.29,749.153,-1068.38,"345",6074.42,1275.83,672.454,36.5,25.286,24.915,38.439,"Polyvinyl Chloride (PVC)",24.93,"Comparstic Raman F2Ba Au IAEA 240930.csv",717.337,-1050.37,1,271.36,0.134721,FALSE
2,16,338,67.5934,69.4296,"A16",5871.14,6470.58,18375,831,79,79,831,"Polyvinyl chloride",0.692079,"Comparstic LDIR F2Ba Au MP2 240925.xlsx",152.957,0.0946254,0.55308,"image",242.716,410.581,9.72979,1935.21,"144",5299.43,4266.72,917.148,48.008,29.924,29.924,48.522,"Cellulose Acetate (CA)",62.87,"Comparstic Raman F2Ba Au IAEA 240930.csv",-57.6547,1940.52,0,215,0.314389,FALSE
3,28,698,93.4133,94.4214,"A28",647.945,7273.28,6925,107,89,89,107,"Polyethylene terephthalate",0.866496,"Comparstic LDIR F2Ba Au MP2 240925.xlsx",93.8999,0.830846,0.0233867,"image",-4980.48,1213.27,4808.84,501.061,"451",10239.9,2884.37,788.457,32.148,32.148,30.631,34.504,"Polyphenylene sulphide (PPS)",6.68,"Comparstic Raman F2Ba Au IAEA 240930.csv",4882.77,558.163,0,162.088,0.576311,FALSE
4,29,397,56.3164,57.2677,"A29",6732.36,7441.19,6787.5,291,80,80,291,"Cellulosic",0.844401,"Comparstic LDIR F2Ba Au MP2 240925.xlsx",92.963,3.625,0.261914,"image",1103.93,1381.19,-333.562,3116.23,"47",5021.58,5386.15,1810.897,55.685,42.481,41.9,56.639,"Polyacrylamide/acrylate",46.45,"Comparstic Raman F2Ba Au IAEA 240930.csv",-335.503,3059.95,1,19.9728,2.81966,TRUE
5,32,444,53.4882,54.6744,"A32",8173.55,2214.63,6450,111,81,81,111,"Polyethylene terephthalate",0.881695,"Comparstic LDIR F2Ba Au MP2 240925.xlsx",90.6223,1.37755,0.0362498,"image",2545.13,-3845.37,-3690.71,-774.342,"13",1665.58,1605.35,439.954,34.947,17.727,17.727,34.539,"Polyacrylamide/acrylate",32.28,"Comparstic Raman F2Ba Au IAEA 240930.csv",-3691.5,-720.859,0,80.2244,0.666732,FALSE
6,38,562,75.4218,76.4156,"A38",5516.81,519.861,4550,110,57,57,110,"Polyethylene terephthalate",0.918361,"Comparstic LDIR F2Ba Au MP2 240925.xlsx",76.1133,0.516129,0.0135685,"image",-111.618,-5540.14,-2103.89,-3304.84,"4",3320.04,-1013.55,581.827,31.13,29.614,28.903,36.456,"Polyvinyl Chloride (PVC)",15.81,"Comparstic Raman F2Ba Au IAEA 240930.csv",-2037.04,-3339.76,0,212.095,0.355603,FALSE
7,50,199,95.9308,97.055,"A50",3654.32,3122.32,3187.5,128,36,36,128,"Cellulosic",0.911693,"Comparstic LDIR F2Ba Au MP2 240925.xlsx",63.706,0.282787,0.03822,"image",-1974.11,-2937.68,548.189,-1832.63,"277",5972.23,562.264,347.679,31.236,18.191,17.335,32.88,"Cellulose Acetate Butyrate (CAB)",86.72,"Comparstic Raman F2Ba Au IAEA 240930.csv",615.153,-1763.94,0,142.652,0.672481,FALSE
8,51,462,40.7204,41.4018,"A51",6760.52,3752.7,3100,96,48,48,96,"Polyamide (naturally occurring)",0.917033,"Comparstic LDIR F2Ba Au MP2 240925.xlsx",62.8255,0.5,0.167838,"image",1132.1,-2307.3,-1855.88,-31.1012,"215",3479.06,2260.93,862.442,38.014,29.857,29.857,40.185,"Polyacrylamide/acrylate",28.84,"Comparstic Raman F2Ba Au IAEA 240930.csv",-1878.02,-65.2741,1,253.541,0.160607,FALSE
9,61,342,92.6865,93.4288,"A61",6810.42,7428.33,2600,132,39,39,132,"Cellulosic",0.955329,"Comparstic LDIR F2Ba Au MP2 240925.xlsx",57.5363,0.297641,0.192473,"image",1181.99,1368.33,-405.635,3136.93,"16",5042.82,5447.58,920.608,37.191,32.619,31.803,39.168,"Polyethylene terephtalate (PET)",61.4,"Comparstic Raman F2Ba Au IAEA 240930.csv",-314.263,3121.38,0,104.134,0.890066,TRUE
10,64,163,66.1314,66.7918,"A64",4631.93,6091.04,2437.5,55,55,55,55,"Carbonate",0.732827,"Comparstic LDIR F2Ba Au MP2 240925.xlsx",55.7093,1,0.718523,"image",-996.497,31.0387,916.813,1106.83,"8",6240.32,3490.01,457.915,37.438,21.566,21.566,37.314,"Cellulose Acetate Butyrate (CAB)",89.01,"Comparstic Raman F2Ba Au IAEA 240930.csv",883.242,1163.8,0,112.911,0.585696,FALSE
11,67,749,96.6422,97.3095,"A67",3515.77,7118.37,2387.5,64,53,53,64,"Polyamide (naturally occurring)",0.925614,"Comparstic LDIR F2Ba Au MP2 240925.xlsx",55.1349,0.833333,0.631725,"image",-2112.66,1058.37,2289.96,1533.26,"581",7629.57,3764.41,586.935,28.264,28.125,27.47,29.772,"Polyethylene (PE)",3.5,"Comparstic Raman F2Ba Au IAEA 240930.csv",2272.49,1438.21,0,134.208,0.720093,TRUE
12,73,337,57.7437,58.3214,"A73",5871.48,6179.67,2012.5,66,43,43,66,"Polyamide (naturally occurring)",0.911342,"Comparstic LDIR F2Ba Au MP2 240925.xlsx",50.6201,1.55556,0.661626,"image",243.056,119.667,-108.725,1686.21,"353",5300,4038.24,649.056,30.213,27.726,27.698,32.862,"Polyamide (PA)",63.12,"Comparstic Raman F2Ba Au IAEA 240930.csv",-57.0806,1712.04,0,92.1863,0.626381,FALSE
13,92,153,55.3946,55.6209,"A92",5728.125,4586.37,1475,50,45,45,50,"Polyamide (naturally occurring)",0.939255,"Comparstic LDIR F2Ba Au MP2 240925.xlsx",43.3362,0.9,1.2353,"image",99.7012,-1473.63,-633.126,263.5,"701",4770.14,2620.3,822.731,42.763,30.511,30.283,45.185,"Polyacrylamide/acrylate",89.66,"Comparstic Raman F2Ba Au IAEA 240930.csv",-586.945,294.092,0,102.418,0.540869,FALSE
14,100,169,86.5252,87.0848,"A100",7984.53,5650.67,1412.5,49,43,43,49,"Polyamide (naturally occurring)",0.883442,"Comparstic LDIR F2Ba Au MP2 240925.xlsx",42.4081,1.12903,1.19846,"image",2356.1,-409.336,-2133.18,2091.46,"726",3301.1,4456.74,419.192,26.224,20.681,20.467,26.443,"Polyethylene terephtalate (PET)",88.76,"Comparstic Raman F2Ba Au IAEA 240930.csv",-2055.98,2130.53,0,198.906,0.435005,FALSE
15,105,327,54.1504,54.6453,"A105",1695.04,7249.55,1312.5,49,36,36,49,"Polyamide (naturally occurring)",0.957741,"Comparstic LDIR F2Ba Au MP2 240925.xlsx",40.8794,0.727273,1.23799,"image",-3933.38,1189.55,3902.49,906.057,"167",9301.83,3266.12,348.173,34.833,27.152,27.152,36.166,"Polyacrylamide/acrylate",66.46,"Comparstic Raman F2Ba Au IAEA 240930.csv",3944.74,939.918,0,101.849,0.531672,FALSE
16,109,108,48.191,48.434,"A109",1118.36,8074.08,1287.5,46,35,35,46,"Polyamide (naturally occurring)",0.913454,"Comparstic LDIR F2Ba Au MP2 240925.xlsx",40.4882,0.769231,1.32271,"image",-4510.06,2014.08,4731.26,1377.94,"582",10075.7,3750.64,1841.216,62.752,54.33,53.655,69.462,"Cellulose Acetate Butyrate (CAB)",91.08,"Comparstic Raman F2Ba Au IAEA 240930.csv",4718.59,1424.43,1,141.383,0.340854,FALSE
17,112,259,64.1877,64.6417,"A112",5097.08,9322.81,1250,62,28,28,62,"Cellulosic",0.916479,"Comparstic LDIR F2Ba Au MP2 240925.xlsx",39.8942,2.25,1.20302,"image",-531.34,3262.8,1831.14,4063.41,"246",7202.46,6452.2,381.788,50.111,15.284,15.284,49.806,"Cellulose Acetate Butyrate (CAB)",80.79,"Comparstic Raman F2Ba Au IAEA 240930.csv",1845.38,4125.99,0,134.489,0.477272,FALSE
18,114,722,19.6251,19.7786,"A114",5171.83,5159.92,1237.5,74,27,27,74,"Cellulosic",0.885333,"Comparstic LDIR F2Ba Au MP2 240925.xlsx",39.6943,2.77419,1.12461,"image",-456.59,-900.086,76.2389,528.724,"470",5416.54,2844.76,1439.655,59.392,35.525,35.525,58.791,"Polytetrafluoroethylene (PTFE)",4.63,"Comparstic Raman F2Ba Au IAEA 240930.csv",59.4551,518.553,1,51.5355,0.380808,FALSE
19,120,202,74.3457,74.5428,"A120",4389.31,6475.625,1175,69,25,25,69,"Cellulosic",0.955463,"Comparstic LDIR F2Ba Au MP2 240925.xlsx",38.6789,0.354839,1.04716,"image",-1239.12,415.622,1280.8,1337.63,"610",6594.52,3724.23,1558.788,56.601,44.629,44.629,56.833,"Polyacrylamide/acrylate",86.63,"Comparstic Raman F2Ba Au IAEA 240930.csv",1237.44,1398.02,0,311.743,0.238484,FALSE
20,121,623,90.4593,90.9601,"A121",11036.5,4420.45,1175,50,30,30,50,"Polyamide (naturally occurring)",0.917022,"Comparstic LDIR F2Ba Au MP2 240925.xlsx",38.6789,0.6,1.26088,"image",5408.03,-1639.55,-5246.51,2277.55,"668",174.725,4539.98,357.236,30.909,18.584,18.584,31,"Polyether sulphone (PES)",10.96,"Comparstic Raman F2Ba Au IAEA 240930.csv",-5182.36,2213.77,0,781.681,0.115724,FALSE
21,122,299,74.3005,74.5148,"A122",4147,5223.29,1150,57,28,28,57,"Polyamide (naturally occurring)",0.970035,"Comparstic LDIR F2Ba Au MP2 240925.xlsx",38.2652,0.5,0.92298,"image",-1481.42,-836.711,979.634,166.73,"53",6397.62,2450.37,1765.583,49.117,46.682,46.63,50.319,"Polyamide (PA)",73.25,"Comparstic Raman F2Ba Au IAEA 240930.csv",1040.54,124.168,0,198.003,0.375249,FALSE
22,127,438,60.4637,60.7732,"A127",3146.45,4181.35,1137.5,40,35,35,40,"Polyamide (naturally occurring)",0.932804,"Comparstic LDIR F2Ba Au MP2 240925.xlsx",38.0567,0.875,0.948476,"image",-2481.98,-1878.65,1413.28,-1131.98,"474",6712.21,1177.66,565.02,27.92,26.354,26.354,29.409,"Polycarbonate (PC)",33.89,"Comparstic Raman F2Ba Au IAEA 240930.csv",1355.13,-1148.54,0,102.441,0.590229,FALSE
23,134,465,90.2301,91.6926,"A134",9843.07,3976.33,1100,40,35,35,40,"Cellulosic",0.851688,"Comparstic LDIR F2Ba Au MP2 240925.xlsx",37.4241,1.14286,1.23983,"image",4214.64,-2083.68,-4404.9,1412.48,"658",962.346,3649.03,17029.352,279.471,109.12,109.12,281.338,"Polyamide (PA)",28.38,"Comparstic Raman F2Ba Au IAEA 240930.csv",-4394.74,1322.82,0,148.156,0.60902,FALSE
24,144,217,75.9283,76.6616,"A144",3730.37,3108.88,987.5,50,25,25,50,"Polyamide (naturally occurring)",0.900483,"Comparstic LDIR F2Ba Au MP2 240925.xlsx",35.4588,2,1.08954,"image",-1898.05,-2951.12,477.596,-1813.25,"327",5762.7,488.784,4953.026,112.58,60.62,60.395,112.184,"Polyamide (PA)",85.32,"Comparstic Raman F2Ba Au IAEA 240930.csv",405.618,-1837.42,0,146.127,0.519603,FALSE
25,157,175,89.0934,89.2382,"A157",5841.875,580.125,887.5,40,30,30,40,"Polyamide (naturally occurring)",0.947237,"Comparstic LDIR F2Ba Au MP2 240925.xlsx",33.6155,1.33333,1.35917,"image",213.451,-5479.88,-2357.8,-3121.19,"596",2962.4,-713.888,673.772,29.826,29.265,28.244,35.172,"Cellulose Acetate Butyrate (CAB)",88.63,"Comparstic Raman F2Ba Au IAEA 240930.csv",-2394.68,-3040.09,0,103.3,0.862475,TRUE
26,168,511,89.4836,89.7062,"A168",3266.93,5591.35,812.5,35,35,35,35,"Polyamide (naturally occurring)",0.965774,"Comparstic LDIR F2Ba Au MP2 240925.xlsx",32.1638,1,1.29109,"image",-2361.5,-468.649,1882.82,124.465,"789",7289.72,2525,426.607,32.998,27.289,27.289,33.632,"Polycarbonate (PC)",20.02,"Comparstic Raman F2Ba Au IAEA 240930.csv",1932.64,198.797,0,134.498,0.665315,FALSE
27,180,535,78.1989,78.6022,"A180",6362.92,3816.25,775,30,30,30,30,"Carbonate",0.686958,"Comparstic LDIR F2Ba Au MP2 240925.xlsx",31.4127,1,1.20778,"image",734.493,-2243.75,-1489.56,-138.18,"361",3844.16,2113.39,1165.961,63.897,26.405,26.405,62.899,"Polyacrylamide/acrylate",17.81,"Comparstic Raman F2Ba Au IAEA 240930.csv",-1512.92,-212.809,0,206.336,0.378987,FALSE
28,190,19,74.3581,74.4881,"A191",6522.21,5153.96,750,32,32,32,32,"Carbonate",0.640329,"Comparstic LDIR F2Ba Au MP2 240925.xlsx",30.9019,1,1.63908,"image",893.785,-906.045,-1082.62,1072.12,"23",4326.38,3451.55,879.414,37.036,30.185,29.633,39.578,"Cellulose Acetate Butyrate (CAB)",93.97,"Comparstic Raman F2Ba Au IAEA 240930.csv",-1030.7,1125.34,0,253.668,0.293131,FALSE
29,191,64,36.1911,36.3806,"A192",2991.625,7422.46,750,35,30,30,35,"Polyamide (naturally occurring)",0.971536,"Comparstic LDIR F2Ba Au MP2 240925.xlsx",30.9019,0.857143,1.59428,"image",-2636.8,1362.46,2862.34,1580.78,"484",8188.71,3887.84,1086.703,42.248,37.705,36.74,44.839,"Cellulose Acetate Butyrate (CAB)",92.37,"Comparstic Raman F2Ba Au IAEA 240930.csv",2831.63,1561.63,1,192.744,0.187768,FALSE
30,196,91,95.6127,95.7393,"A197",1659.125,2236.54,737.5,30,30,30,30,"Polyamide (naturally occurring)",0.926627,"Comparstic LDIR F2Ba Au MP2 240925.xlsx",30.6433,1,1.74705,"image",-3969.3,-3823.46,1897.06,-3401.61,"98",7248.39,-1170.85,783.843,36.166,33.87,29.436,42.137,"Cellulose Acetate Butyrate (CAB)",91.51,"Comparstic Raman F2Ba Au IAEA 240930.csv",1891.3,-3497.05,0,216.221,0.442199,FALSE
31,208,742,71.1469,71.4248,"A210",1675.16,6069.26,712.5,32,28,28,32,"Polyamide (naturally occurring)",0.93579,"Comparstic LDIR F2Ba Au MP2 240925.xlsx",30.1195,0.888889,1.83014,"image",-3953.26,9.25425,3440.1,-112.809,"290",8847.74,2163.34,1236.815,45.109,35.741,35.741,45.109,"Polycarbonate (PC)",3.87,"Comparstic Raman F2Ba Au IAEA 240930.csv",3490.66,-162.866,0,171.061,0.415915,FALSE
32,210,63,64.7224,65.2923,"A212",2232.52,4662.04,700,36,28,28,36,"Polyamide (naturally occurring)",0.930803,"Comparstic LDIR F2Ba Au MP2 240925.xlsx",29.8541,1.3,1.59789,"image",-3395.9,-1397.96,2391.2,-1091.54,"315",7773.66,1294.2,2415.793,65.173,55.075,54.427,67.895,"Cellulose Acetate Butyrate (CAB)",92.39,"Comparstic Raman F2Ba Au IAEA 240930.csv",2416.58,-1032,0,425.35,0.152163,FALSE
33,212,349,45.4278,45.7876,"A217",4154.58,4045,687.5,53,22,22,53,"Polyethylene terephthalate",0.906687,"Comparstic LDIR F2Ba Au MP2 240925.xlsx",29.5864,2.44444,1.84775,"image",-1473.84,-2015,494.541,-839.264,"153",5896.46,1479.62,346.361,33.109,17.656,17.118,34.145,"Polyacrylamide/acrylate",60.14,"Comparstic Raman F2Ba Au IAEA 240930.csv",539.376,-846.58,1,167.653,0.270964,FALSE
34,218,117,84.6455,86.6381,"A224",6429.04,365.083,675,42,22,22,42,"Rubber",0.805345,"Comparstic LDIR F2Ba Au MP2 240925.xlsx",29.3162,0.526316,1.60848,"image",800.618,-5694.92,-2947.99,-3066.85,"561",2472.14,-797.128,32605.538,573.006,160.833,160.833,571.113,"Polyethylene terephtalate (PET)",90.96,"Comparstic Raman F2Ba Au IAEA 240930.csv",-2884.94,-3123.33,0,228.432,0.37055,FALSE
35,220,245,13.2254,13.4864,"A229",3142.08,6438.75,662.5,30,25,25,30,"Rubber",0.704515,"Comparstic LDIR F2Ba Au MP2 240925.xlsx",29.0434,0.833333,1.36462,"image",-2486.34,378.747,2333.93,799.455,"254",7699.03,3115.14,1056.878,42.141,34.876,34.876,44.777,"Polyamide (PA)",81.82,"Comparstic Raman F2Ba Au IAEA 240930.csv",2341.95,788.938,1,131.206,0.100799,FALSE
36,229,29,33.0469,33.2575,"A241",6416.78,8269.77,637.5,30,25,25,30,"Polyamide (naturally occurring)",0.921882,"Comparstic LDIR F2Ba Au MP2 240925.xlsx",28.4902,1.2,1.92918,"image",788.357,2209.77,273.246,3697.64,"476",5597.37,6026.24,377.339,32.131,16.616,16.616,31.574,"Cellulose Acetate Butyrate (CAB)",93.4,"Comparstic Raman F2Ba Au IAEA 240930.csv",240.286,3700.04,1,117.283,0.28177,FALSE
37,238,80,45.9847,47.0857,"A257",6692.05,5725.42,612.5,30,25,25,30,"Polyethylene terephthalate",0.724432,"Comparstic LDIR F2Ba Au MP2 240925.xlsx",27.926,0.833333,1.96919,"image",1063.62,-334.586,-995.956,1630.49,"402",4406.18,3965.91,6816.157,104.475,86.384,86.384,105.541,"Polyethylene terephtalate (PET)",91.82,"Comparstic Raman F2Ba Au IAEA 240930.csv",-950.904,1639.71,1,139.397,0.329884,FALSE
38,245,782,61.3263,61.5772,"A267",977.462,5224.13,600,30,25,25,30,"Polyamide (naturally occurring)",0.964949,"Comparstic LDIR F2Ba Au MP2 240925.xlsx",27.6395,1.2,1.29666,"image",-4650.96,-835.874,3694.33,-1119.96,"503",9039.48,1146.09,702.279,49.508,18.875,18.875,49.357,"Polycarbonate (PC)",1.2,"Comparstic Raman F2Ba Au IAEA 240930.csv",3682.4,-1180.11,0,135.317,0.453207,FALSE
39,246,129,63.2773,63.3994,"A268",6791.02,5134.51,600,30,25,25,30,"Polyamide (naturally occurring)",0.971335,"Comparstic LDIR F2Ba Au MP2 240925.xlsx",27.6395,1.2,1.29666,"image",1162.6,-925.495,-1320.73,1164.65,"775",3984.24,3526.75,688.932,35.21,25.263,25.263,37.483,"Cellulose Acetate Butyrate (CAB)",90.68,"Comparstic Raman F2Ba Au IAEA 240930.csv",-1372.84,1200.54,0,85.5146,0.739958,TRUE
40,249,231,60.7202,62.037,"A283",3268.8,1111.05,575,30,25,25,30,"Polyamide (naturally occurring)",0.966307,"Comparstic LDIR F2Ba Au MP2 240925.xlsx",27.0576,1.2,1.83343,"image",-2359.62,-4948.95,61.4027,-3711.65,"248",5362,-1363.16,6327.099,181.286,63.243,63.243,180.995,"Polyamide (PA)",83.36,"Comparstic Raman F2Ba Au IAEA 240930.csv",4.91872,-3689.36,0,170.064,0.357043,FALSE
41,253,34,30.7501,30.8977,"A290",5110.74,3107.99,562.5,56,19,19,56,"Polypropylene",0.950283,"Comparstic LDIR F2Ba Au MP2 240925.xlsx",26.7619,2.97297,1.94594,"image",-517.681,-2952.01,-704.897,-1253.33,"620",4654.17,1042.18,644.277,43.424,21.146,21.146,43.388,"Cellulose Acetate Butyrate (CAB)",93.26,"Comparstic Raman F2Ba Au IAEA 240930.csv",-702.907,-1284.02,2,46.3812,0.662988,FALSE
42,254,532,82.4894,82.6985,"A292",2672.58,2946.31,562.5,46,19,19,46,"Cellulosic",0.922326,"Comparstic LDIR F2Ba Au MP2 240925.xlsx",26.7619,2.41667,1.45763,"image",-2955.84,-3113.7,1317.44,-2382.13,"83",6755.84,-69.7841,598.799,29.194,26.417,26.417,29.227,"Polyurethane (PU)",18.04,"Comparstic Raman F2Ba Au IAEA 240930.csv",1398.75,-2395.99,0,156.622,0.526677,FALSE
43,255,183,93.3686,93.7998,"A293",3761.69,4274.47,562.5,40,20,20,40,"Polyamide",0.687809,"Comparstic LDIR F2Ba Au MP2 240925.xlsx",26.7619,2,1.52751,"image",-1866.73,-1785.53,924.213,-802.33,"67",6374.65,1522.68,1476.894,58.064,38.974,38.974,58.886,"Polyamide (PA)",87.74,"Comparstic Raman F2Ba Au IAEA 240930.csv",1017.57,-803.525,0,301.269,0.309918,FALSE
44,260,267,8.21531,8.32633,"A305",1383.06,245.556,550,30,25,25,30,"Polyethylene terephthalate",0.934657,"Comparstic LDIR F2Ba Au MP2 240925.xlsx",26.4628,1.2,1.87615,"image",-4245.37,-5814.45,1324.78,-5218.8,"674",6673.74,-2891.33,422.158,32.56,24.171,24.171,32.148,"Cellulose Acetate Butyrate (CAB)",79.66,"Comparstic Raman F2Ba Au IAEA 240930.csv",1316.66,-5217.53,1,164.178,0.0500389,FALSE
45,261,789,65.8197,66.2887,"A306",6219.54,3062.82,550,30,25,25,30,"Polyamide (naturally occurring)",0.954875,"Comparstic LDIR F2Ba Au MP2 240925.xlsx",26.4628,0.833333,1.87615,"image",591.113,-2997.18,-1672.8,-841.642,"184",3717.87,1427.96,1171.893,55.137,32.186,31.973,60.845,"Polypropylene (PP) Lab bench",0.34,"Comparstic Raman F2Ba Au IAEA 240930.csv",-1639.21,-898.246,0,129.19,0.509478,FALSE
46,272,453,33.4514,33.4911,"A340",4097.32,4224.23,512.5,32,21,21,32,"Polyamide (naturally occurring)",0.971002,"Comparstic LDIR F2Ba Au MP2 240925.xlsx",25.5448,0.666667,1.66318,"image",-1531.1,-1835.78,616.377,-709.035,"31",5986.59,1586.4,488.728,30.388,22.294,22.294,30.445,"Polyacrylamide/acrylate",30.35,"Comparstic Raman F2Ba Au IAEA 240930.csv",629.504,-739.804,1,157.632,0.212212,FALSE
47,284,261,32.3231,32.428,"A452",3649.75,3672.5,387.5,34,18,18,34,"Polyamide (naturally occurring)",0.938319,"Comparstic LDIR F2Ba Au MP2 240925.xlsx",22.2122,1.875,1.57598,"image",-1978.67,-2387.5,775.571,-1363.32,"677",6110.58,986.5,372.89,25.474,20.808,20.488,28.009,"Cellulose Acetate Butyrate (CAB)",80.43,"Comparstic Raman F2Ba Au IAEA 240930.csv",753.503,-1339.7,1,139.093,0.232385,FALSE
48,286,419,66.2446,66.607,"A476",2054.58,8317.08,362.5,30,15,15,30,"Polyethylene terephthalate",0.722904,"Comparstic LDIR F2Ba Au MP2 240925.xlsx",21.4837,0.5,1.96762,"image",-3573.84,2257.08,4028.19,1966.31,"95",9449.93,4306.91,822.566,34.835,31.098,29.57,38.212,"Polyacrylamide/acrylate",37.47,"Comparstic Raman F2Ba Au IAEA 240930.csv",4092.85,1980.7,0,313.821,0.21109,FALSE